date	time	subject	trialcode	trialnum	latency	response
020413	10:03	6565	speed	1	2830	46
020413	10:03	6565	error	2	2549	91
020413	10:03	6565	whichhand	3	6909	right
020413	10:03	6565	yane	1	8725	yane
020413	10:03	6565	5yane	2	10089	5
020413	10:03	6565	army	3	4774	army
020413	10:03	6565	13army	4	13934	4
020413	10:03	6565	beeg	5	3995	beeg
020413	10:03	6565	9beeg	6	4754	6
020413	10:03	6565	lion	7	4243	lion
020413	10:03	6565	23lion	8	1416	7
020413	10:03	6565	taxe	9	4156	taxe
020413	10:03	6565	8taxe	10	5429	4
020413	10:03	6565	pest	11	3643	pest
020413	10:03	6565	14pest	12	1976	1
020413	10:03	6565	sour	13	3526	sour
020413	10:03	6565	18sour	14	1336	1
020413	10:03	6565	jame	15	3432	jame
020413	10:03	6565	5jame	16	5205	5
020413	10:03	6565	ugly	17	3492	ugly
020413	10:03	6565	19ugly	18	3390	1
020413	10:03	6565	mom	19	4734	mom
020413	10:03	6565	23mom	20	1399	9
020413	10:03	6565	lake	21	3517	lake
020413	10:03	6565	16lake	22	1807	8
020413	10:03	6565	bees	23	3173	bees
020413	10:03	6565	21bees	24	1893	3
020413	10:03	6565	nip	25	3479	nip
020413	10:03	6565	22nip	26	6690	5
020413	10:03	6565	nop	27	3326	nop
020413	10:03	6565	10nop	28	1983	5
020413	10:03	6565	blue	29	3222	blue
020413	10:03	6565	18blue	30	692	9
020413	10:03	6565	cold	31	3214	cold
020413	10:03	6565	19cold	32	2092	2
020413	10:03	6565	lice	33	3646	lice
020413	10:03	6565	13lice	34	2371	1
020413	10:03	6565	dax	35	4713	dax
020413	10:03	6565	8dax	36	4148	5
020413	10:03	6565	plin	37	3917	plin
020413	10:03	6565	10plin	38	951	5
020413	10:03	6565	lump	39	3671	lump
020413	10:03	6565	23lump	40	2891	2
020413	10:03	6565	win	41	3030	win
020413	10:03	6565	18win	42	803	9
020413	10:03	6565	jabe	43	3200	jabe
020413	10:03	6565	2jabe	44	2631	5
020413	10:03	6565	yofe	45	4100	yofe
020413	10:03	6565	1yofe	46	2166	6
020413	10:03	6565	soob	47	3366	soob
020413	10:03	6565	7soob	48	1053	5
020413	10:03	6565	slap	49	3097	slap
020413	10:03	6565	16slap	50	1220	3
020413	10:03	6565	nobe	51	3200	nobe
020413	10:03	6565	1nobe	52	3863	5
020413	10:03	6565	frog	53	3483	frog
020413	10:03	6565	15frog	54	1253	7
020413	10:03	6565	more	55	2970	more
020413	10:03	6565	12more	56	6713	8
020413	10:03	6565	hide	57	3260	hide
020413	10:03	6565	13hide	58	8416	6
020413	10:03	6565	peka	59	3663	peka
020413	10:03	6565	4peka	60	1587	5
020413	10:03	6565	scar	61	3914	scar
020413	10:03	6565	20scar	62	2660	3
020413	10:03	6565	cow	63	4927	cow
020413	10:03	6565	16cow	64	4224	6
020413	10:03	6565	pems	65	4078	pems
020413	10:03	6565	4pems	66	6466	5
020413	10:03	6565	yeet	67	3406	yeet
020413	10:03	6565	3yeet	68	2613	5
020413	10:03	6565	sad	69	3106	sad
020413	10:03	6565	20sad	70	2962	1
020413	10:03	6565	wish	71	3316	wish
020413	10:03	6565	17wish	72	5645	4
020413	10:03	6565	lik	73	3891	lik
020413	10:03	6565	11lik	74	1183	5
020413	10:03	6565	jobe	75	3573	jobe
020413	10:03	6565	1jobe	76	989	5
020413	10:03	6565	voom	77	3283	voom
020413	10:03	6565	7voom	78	2031	5
020413	10:03	6565	tage	79	3275	tage
020413	10:03	6565	9tage	80	7158	4
020413	10:03	6565	yate	81	3839	yate
020413	10:03	6565	2yate	82	3445	6
020413	10:03	6565	yoop	83	3513	yoop
020413	10:03	6565	11yoop	84	963	7
020413	10:03	6565	tutk	85	3410	tutk
020413	10:03	6565	5tutk	86	1656	5
020413	10:03	6565	life	87	3484	life
020413	10:03	6565	12life	88	5879	8
020413	10:03	6565	woem	89	3435	woem
020413	10:03	6565	4woem	90	3048	5
020413	10:03	6565	silk	91	3756	silk
020413	10:03	6565	19silk	92	653	9
020413	10:03	6565	slin	93	3240	slin
020413	10:03	6565	6slin	94	1078	5
020413	10:03	6565	hay	95	3960	hay
020413	10:03	6565	17hay	96	3288	3
020413	10:03	6565	tove	97	3667	tove
020413	10:03	6565	3tove	98	1863	5
020413	10:03	6565	voke	99	3330	voke
020413	10:03	6565	6voke	100	1203	5
020413	10:03	6565	pill	101	3785	pill
020413	10:03	6565	23pill	102	4192	6
020413	10:03	6565	nofe	103	3231	nofe
020413	10:03	6565	1nofe	104	3940	5
020413	10:03	6565	jufe	105	3485	jufe
020413	10:03	6565	24jufe	106	1576	5
020413	10:03	6565	girl	107	3263	girl
020413	10:03	6565	17girl	108	6066	7
020413	10:03	6565	neeb	109	4967	neeb
020413	10:03	6565	3neeb	110	1064	4
020413	10:03	6565	foof	111	4123	foof
020413	10:03	6565	7foof	112	3525	4
020413	10:03	6565	flin	113	3687	flin
020413	10:03	6565	6flin	114	1130	5
020413	10:03	6565	meef	115	4938	meef
020413	10:03	6565	3meef	116	6284	4
020413	10:03	6565	lool	117	3744	lool
020413	10:03	6565	11lool	118	3273	6
020413	10:03	6565	wasp	119	3260	wasp
020413	10:03	6565	15wasp	120	2248	1
020413	10:03	6565	tomb	121	3436	tomb
020413	10:03	6565	19tomb	122	2497	3
020413	10:03	6565	mafe	123	3995	mafe
020413	10:03	6565	2mafe	124	2690	5
020413	10:03	6565	snob	125	5781	snob
020413	10:03	6565	18snob	126	5221	2
020413	10:03	6565	voop	127	3563	voop
020413	10:03	6565	7voop	128	12235	5
020413	10:03	6565	pluk	129	4931	pluk
020413	10:03	6565	10pluk	130	1405	4
020413	10:03	6565	obey	131	3426	obey
020413	10:03	6565	14obey	132	4272	6
020413	10:03	6565	wac	133	3716	wac
020413	10:03	6565	8wac	134	14509	5
020413	10:03	6565	bath	135	5347	bath
020413	10:03	6565	15bath	136	3932	7
020413	10:03	6565	leel	137	4029	leel
020413	10:03	6565	3leel	138	4771	5
020413	10:03	6565	aqil	139	4571	aqil
020413	10:03	6565	24aqil	140	3755	4
020413	10:03	6565	nilo	141	3436	nilo
020413	10:03	6565	11nilo	142	2625	5
020413	10:03	6565	nude	143	3526	nude
020413	10:03	6565	13nude	144	1319	7
020413	10:03	6565	soog	145	4017	soog
020413	10:03	6565	7soog	146	2423	4
020413	10:03	6565	cute	147	2956	cute
020413	10:03	6565	15cute	148	788	9
020413	10:03	6565	eat	149	2923	eat
020413	10:03	6565	20eat	150	1002	9
020413	10:03	6565	zabe	151	3578	zabe
020413	10:03	6565	9zabe	152	705	5
020413	10:03	6565	baby	153	3267	baby
020413	10:03	6565	15baby	154	4455	4
020413	10:03	6565	zafe	155	4683	zafe
020413	10:03	6565	9zafe	156	1687	5
020413	10:03	6565	bowl	157	3457	bowl
020413	10:03	6565	17bowl	158	2510	7
020413	10:03	6565	pom	159	3303	pom
020413	10:03	6565	22pom	160	1354	5
020413	10:03	6565	joom	161	2986	joom
020413	10:03	6565	11joom	162	1529	5
020413	10:03	6565	kige	163	3577	kige
020413	10:03	6565	24kige	164	1672	5
020413	10:03	6565	kabe	165	3364	kabe
020413	10:03	6565	2kabe	166	3539	5
020413	10:03	6565	seat	167	3181	seat
020413	10:03	6565	20seat	168	1179	9
020413	10:03	6565	vape	169	4874	vape
020413	10:03	6565	2vape	170	2782	6
020413	10:03	6565	dlip	171	3973	dlip
020413	10:03	6565	6dlip	172	677	5
020413	10:03	6565	fear	173	3160	fear
020413	10:03	6565	21fear	174	911	1
020413	10:03	6565	song	175	3072	song
020413	10:03	6565	18song	176	3884	8
020413	10:03	6565	lip	177	2983	lip
020413	10:03	6565	22lip	178	662	7
020413	10:03	6565	melb	179	3481	melb
020413	10:03	6565	4melb	180	1868	5
020413	10:03	6565	nuad	181	7967	nuad
020413	10:03	6565	24nuad	182	1792	5
020413	10:03	6565	hil	183	5726	hil
020413	10:03	6565	10hil	184	1009	5
020413	10:03	6565	jip	185	2854	jip
020413	10:03	6565	22jip	186	2051	5
020413	10:03	6565	anay	187	3358	anay
020413	10:03	6565	5anay	188	911	5
020413	10:03	6565	lust	189	3752	lust
020413	10:03	6565	12lust	190	1560	6
020413	10:03	6565	tez	191	5240	tez
020413	10:03	6565	8tez	192	1030	4
020413	10:03	6565	yame	193	4370	yame
020413	10:03	6565	5yame	194	1281	3
020413	10:03	6565	name	195	3052	name
020413	10:03	6565	17name	196	849	6
020413	10:03	6565	dawn	197	3212	dawn
020413	10:03	6565	14dawn	198	978	6
020413	10:03	6565	sun	199	2992	sun
020413	10:03	6565	19sun	200	615	7
020413	10:03	6565	arm	201	3524	arm
020413	10:03	6565	14arm	202	974	9
020413	10:03	6565	pobe	203	3660	pobe
020413	10:03	6565	1pobe	204	952	5
020413	10:03	6565	fish	205	3616	fish
020413	10:03	6565	16fish	206	1606	6
020413	10:03	6565	lids	207	3171	lids
020413	10:03	6565	12lids	208	748	9
020413	10:03	6565	zest	209	3563	zest
020413	10:03	6565	20zest	210	1835	8
020413	10:03	6565	celm	211	3408	celm
020413	10:03	6565	24celm	212	782	5
020413	10:03	6565	yip	213	3564	yip
020413	10:03	6565	22yip	214	4436	5
020413	10:03	6565	noon	215	4026	noon
020413	10:03	6565	23noon	216	855	8
020413	10:03	6565	cell	217	3347	cell
020413	10:03	6565	13cell	218	875	9
020413	10:03	6565	air	219	2790	air
020413	10:03	6565	16air	220	1181	9
020413	10:03	6565	veed	221	3211	veed
020413	10:03	6565	9veed	222	1217	5
020413	10:03	6565	wife	223	4094	wife
020413	10:03	6565	14wife	224	2985	7
020413	10:03	6565	waf	225	3008	waf
020413	10:03	6565	8waf	226	622	5
020413	10:03	6565	lim	227	5179	lim
020413	10:03	6565	10lim	228	1251	5
020413	10:03	6565	liar	229	5494	liar
020413	10:03	6565	12liar	230	3346	1
020413	10:03	6565	bed	231	3162	bed
020413	10:03	6565	21bed	232	954	9
020413	10:03	6565	star	233	3178	star
020413	10:03	6565	21star	234	1977	7
020413	10:03	6565	clim	235	3391	clim
020413	10:03	6565	6clim	236	782	5
020413	10:03	6565	alfi	237	3253	alfi
020413	10:03	6565	4alfi	238	793	5
020413	10:03	6565	fat	239	2711	fat
020413	10:03	6565	21fat	240	2064	2
022513	10:03	3	speed	1	10173	47
022513	10:03	3	error	2	3495	100
022513	10:03	3	whichhand	3	9564	right
022513	10:03	3	yane	1	5575	yane
022513	10:03	3	5yane	2	5516	5
022513	10:03	3	army	3	4100	army
022513	10:03	3	13army	4	8839	6
022513	10:03	3	beeg	5	4464	beeg
022513	10:03	3	9beeg	6	4003	5
022513	10:03	3	lion	7	3228	lion
022513	10:03	3	23lion	8	4407	7
022513	10:03	3	taxe	9	3663	taxe
022513	10:03	3	8taxe	10	1538	6
022513	10:03	3	pest	11	2124	pest
022513	10:03	3	14pest	12	1155	1
022513	10:03	3	sour	13	2493	sour
022513	10:03	3	18sour	14	620	1
022513	10:03	3	jame	15	2276	jame
022513	10:03	3	5jame	16	1397	3
022513	10:03	3	ugly	17	1885	ugly
022513	10:03	3	19ugly	18	934	1
022513	10:03	3	mom	19	1567	mom
022513	10:03	3	23mom	20	1340	9
022513	10:03	3	lake	21	1885	lake
022513	10:03	3	16lake	22	511	9
022513	10:03	3	bees	23	1747	bees
022513	10:03	3	21bees	24	672	1
022513	10:03	3	nip	25	1870	nip
022513	10:03	3	22nip	26	717	1
022513	10:03	3	nop	27	1818	nop
022513	10:03	3	10nop	28	493	2
022513	10:03	3	blue	29	1641	blue
022513	10:03	3	18blue	30	603	9
022513	10:03	3	cold	31	1738	cold
022513	10:03	3	19cold	32	633	5
022513	10:03	3	lice	33	2512	lice
022513	10:03	3	13lice	34	1310	1
022513	10:03	3	dax	35	2458	dax
022513	10:03	3	8dax	36	1973	3
022513	10:03	3	plin	37	2341	plin
022513	10:03	3	10plin	38	1974	5
022513	10:03	3	lump	39	1653	lump
022513	10:03	3	23lump	40	1282	1
022513	10:03	3	win	41	2068	win
022513	10:03	3	18win	42	1159	9
022513	10:03	3	jabe	43	2662	jabe
022513	10:03	3	2jabe	44	1026	5
022513	10:03	3	yofe	45	3454	yofe
022513	10:03	3	1yofe	46	643	5
022513	10:03	3	soob	47	1750	soob
022513	10:03	3	7soob	48	558	5
022513	10:03	3	slap	49	2934	slap
022513	10:03	3	16slap	50	583	1
022513	10:03	3	nobe	51	2149	nobe
022513	10:03	3	1nobe	52	669	1
022513	10:03	3	frog	53	2768	frog
022513	10:03	3	15frog	54	1983	7
022513	10:03	3	more	55	2358	more
022513	10:03	3	12more	56	990	5
022513	10:03	3	hide	57	2076	hide
022513	10:03	3	13hide	58	1135	4
022513	10:03	3	peka	59	2127	peka
022513	10:03	3	4peka	60	512	5
022513	10:03	3	scar	61	2449	scar
022513	10:03	3	20scar	62	493	1
022513	10:03	3	cow	63	1494	cow
022513	10:03	3	16cow	64	952	7
022513	10:03	3	pems	65	4016	pems
022513	10:03	3	4pems	66	638	3
022513	10:03	3	yeet	67	1570	yeet
022513	10:03	3	3yeet	68	489	3
022513	10:03	3	sad	69	1292	sad
022513	10:03	3	20sad	70	446	1
022513	10:03	3	wish	71	1490	wish
022513	10:03	3	17wish	72	916	9
022513	10:03	3	lik	73	1909	lik
022513	10:03	3	11lik	74	687	3
022513	10:03	3	jobe	75	1833	jobe
022513	10:03	3	1jobe	76	574	5
022513	10:03	3	voom	77	4725	voom
022513	10:03	3	7voom	78	782	5
022513	10:03	3	tage	79	2268	tage
022513	10:03	3	9tage	80	528	3
022513	10:03	3	yate	81	1696	yate
022513	10:03	3	2yate	82	434	5
022513	10:03	3	yoop	83	2038	yoop
022513	10:03	3	11yoop	84	451	5
022513	10:03	3	tutk	85	1726	tutk
022513	10:03	3	5tutk	86	1007	2
022513	10:03	3	life	87	1485	life
022513	10:03	3	12life	88	583	9
022513	10:03	3	woem	89	2357	woem
022513	10:03	3	4woem	90	421	5
022513	10:03	3	silk	91	2210	silk
022513	10:03	3	19silk	92	496	9
022513	10:03	3	slin	93	1593	slin
022513	10:03	3	6slin	94	1015	5
022513	10:03	3	hay	95	1484	hay
022513	10:03	3	17hay	96	927	8
022513	10:03	3	tove	97	1711	tove
022513	10:03	3	3tove	98	1128	6
022513	10:03	3	voke	99	1648	voke
022513	10:03	3	6voke	100	556	8
022513	10:03	3	pill	101	1988	pill
022513	10:03	3	23pill	102	1115	7
022513	10:03	3	nofe	103	1476	nofe
022513	10:03	3	1nofe	104	566	4
022513	10:03	3	jufe	105	1621	jufe
022513	10:03	3	24jufe	106	538	4
022513	10:03	3	girl	107	1723	girl
022513	10:03	3	17girl	108	6188	5
022513	10:03	3	neeb	109	1820	neeb
022513	10:03	3	3neeb	110	905	6
022513	10:03	3	foof	111	2523	foof
022513	10:03	3	7foof	112	676	4
022513	10:03	3	flin	113	1470	flin
022513	10:03	3	6flin	114	498	3
022513	10:03	3	meef	115	1395	meef
022513	10:03	3	3meef	116	537	4
022513	10:03	3	lool	117	2433	lool
022513	10:03	3	11lool	118	838	6
022513	10:03	3	wasp	119	1722	wasp
022513	10:03	3	15wasp	120	588	1
022513	10:03	3	tomb	121	1529	tomb
022513	10:03	3	19tomb	122	513	1
022513	10:03	3	mafe	123	1578	mafe
022513	10:03	3	2mafe	124	849	3
022513	10:03	3	snob	125	1669	snob
022513	10:03	3	18snob	126	640	1
022513	10:03	3	voop	127	3012	voop
022513	10:03	3	7voop	128	490	4
022513	10:03	3	pluk	129	2788	pluk
022513	10:03	3	10pluk	130	627	3
022513	10:03	3	obey	131	1559	obey
022513	10:03	3	14obey	132	894	2
022513	10:03	3	wac	133	2256	wac
022513	10:03	3	8wac	134	516	3
022513	10:03	3	bath	135	1973	bath
022513	10:03	3	15bath	136	684	9
022513	10:03	3	leel	137	1494	leel
022513	10:03	3	3leel	138	464	5
022513	10:03	3	aqil	139	2043	aqil
022513	10:03	3	24aqil	140	495	5
022513	10:03	3	nilo	141	1793	nilo
022513	10:03	3	11nilo	142	614	5
022513	10:03	3	nude	143	1924	nude
022513	10:03	3	13nude	144	589	5
022513	10:03	3	soog	145	1891	soog
022513	10:03	3	7soog	146	550	5
022513	10:03	3	cute	147	1709	cute
022513	10:03	3	15cute	148	622	9
022513	10:03	3	eat	149	2571	eat
022513	10:03	3	20eat	150	619	9
022513	10:03	3	zabe	151	1872	zabe
022513	10:03	3	9zabe	152	555	8
022513	10:03	3	baby	153	2395	baby
022513	10:03	3	15baby	154	601	8
022513	10:03	3	zafe	155	2750	zafe
022513	10:03	3	9zafe	156	598	5
022513	10:03	3	bowl	157	1940	bowl
022513	10:03	3	17bowl	158	541	9
022513	10:03	3	pom	159	1653	pom
022513	10:03	3	22pom	160	657	9
022513	10:03	3	joom	161	1460	joom
022513	10:03	3	11joom	162	575	9
022513	10:03	3	kige	163	1566	kige
022513	10:03	3	24kige	164	605	7
022513	10:03	3	kabe	165	1539	kabe
022513	10:03	3	2kabe	166	652	8
022513	10:03	3	seat	167	2383	seat
022513	10:03	3	20seat	168	1630	9
022513	10:03	3	vape	169	1682	vape
022513	10:03	3	2vape	170	669	9
022513	10:03	3	dlip	171	3480	dlip
022513	10:03	3	6dlip	172	1019	4
022513	10:03	3	fear	173	1376	fear
022513	10:03	3	21fear	174	567	1
022513	10:03	3	song	175	1669	song
022513	10:03	3	18song	176	1433	9
022513	10:03	3	lip	177	1141	lip
022513	10:03	3	22lip	178	621	9
022513	10:03	3	melb	179	1643	melb
022513	10:03	3	4melb	180	822	6
022513	10:03	3	nuad	181	1675	nuad
022513	10:03	3	24nuad	182	511	7
022513	10:03	3	hil	183	1431	hil
022513	10:03	3	10hil	184	771	6
022513	10:03	3	jip	185	2211	jip
022513	10:03	3	22jip	186	656	7
022513	10:03	3	anay	187	1580	anay
022513	10:03	3	5anay	188	1138	4
022513	10:03	3	lust	189	1459	lust
022513	10:03	3	12lust	190	679	9
022513	10:03	3	tez	191	6457	tez
022513	10:03	3	8tez	192	1639	4
022513	10:03	3	yame	193	1715	yame
022513	10:03	3	5yame	194	468	5
022513	10:03	3	name	195	2255	name
022513	10:03	3	17name	196	531	9
022513	10:03	3	dawn	197	3443	dawn
022513	10:03	3	14dawn	198	1416	9
022513	10:03	3	sun	199	1341	sun
022513	10:03	3	19sun	200	526	9
022513	10:03	3	arm	201	1478	arm
022513	10:03	3	14arm	202	433	9
022513	10:03	3	pobe	203	1909	pobe
022513	10:03	3	1pobe	204	871	9
022513	10:03	3	fish	205	1370	fish
022513	10:03	3	16fish	206	1097	7
022513	10:03	3	lids	207	2714	lids
022513	10:03	3	12lids	208	676	9
022513	10:03	3	zest	209	2815	zest
022513	10:03	3	20zest	210	517	9
022513	10:03	3	celm	211	1693	celm
022513	10:03	3	24celm	212	608	6
022513	10:03	3	yip	213	1429	yip
022513	10:03	3	22yip	214	618	6
022513	10:03	3	noon	215	1454	noon
022513	10:03	3	23noon	216	1202	9
022513	10:03	3	cell	217	1960	cell
022513	10:03	3	13cell	218	568	1
022513	10:03	3	air	219	1518	air
022513	10:03	3	16air	220	520	9
022513	10:03	3	veed	221	1632	veed
022513	10:03	3	9veed	222	765	4
022513	10:03	3	wife	223	2059	wife
022513	10:03	3	14wife	224	495	9
022513	10:03	3	waf	225	1376	waf
022513	10:03	3	8waf	226	455	4
022513	10:03	3	lim	227	1147	lim
022513	10:03	3	10lim	228	531	4
022513	10:03	3	liar	229	1442	liar
022513	10:03	3	12liar	230	463	1
022513	10:03	3	bed	231	1441	bed
022513	10:03	3	21bed	232	470	9
022513	10:03	3	star	233	1384	star
022513	10:03	3	21star	234	759	9
022513	10:03	3	clim	235	1718	clim
022513	10:03	3	6clim	236	607	8
022513	10:03	3	alfi	237	2077	alfi
022513	10:03	3	4alfi	238	576	4
022513	10:03	3	fat	239	2007	fat
022513	10:03	3	21fat	240	1245	1
022513	10:33	958149	speed	1	6095	50
022513	10:33	958149	error	2	2733	88
022513	10:33	958149	whichhand	3	6478	right
022513	10:33	958149	yane	1	6037	yane
022513	10:33	958149	5yane	2	6099	5
022513	10:33	958149	army	3	2975	army
022513	10:33	958149	13army	4	3486	4
022513	10:33	958149	beeg	5	2770	beeg
022513	10:33	958149	9beeg	6	3529	3
022513	10:33	958149	lion	7	2906	lion
022513	10:33	958149	23lion	8	1293	6
022513	10:33	958149	taxe	9	3198	taxe
022513	10:33	958149	8taxe	10	1429	4
022513	10:33	958149	pest	11	2785	pest
022513	10:33	958149	14pest	12	968	3
022513	10:33	958149	sour	13	2863	sour
022513	10:33	958149	18sour	14	1819	2
022513	10:33	958149	jame	15	2408	jame
022513	10:33	958149	5jame	16	622	5
022513	10:33	958149	ugly	17	2475	ugly
022513	10:33	958149	19ugly	18	926	2
022513	10:33	958149	mom	19	2391	mom
022513	10:33	958149	23mom	20	806	8
022513	10:33	958149	lake	21	2451	lake
022513	10:33	958149	16lake	22	751	6
022513	10:33	958149	bees	23	2167	bees
022513	10:33	958149	21bees	24	1295	4
022513	10:33	958149	nip	25	2856	nip
022513	10:33	958149	22nip	26	1957	3
022513	10:33	958149	nop	27	2548	nop
022513	10:33	958149	10nop	28	1013	5
022513	10:33	958149	blue	29	2570	blue
022513	10:33	958149	18blue	30	585	5
022513	10:33	958149	cold	31	2023	cold
022513	10:33	958149	19cold	32	1013	4
022513	10:33	958149	lice	33	2034	lice
022513	10:33	958149	13lice	34	758	2
022513	10:33	958149	dax	35	2406	dax
022513	10:33	958149	8dax	36	1124	2
022513	10:33	958149	plin	37	2741	plin
022513	10:33	958149	10plin	38	566	5
022513	10:33	958149	lump	39	2573	lump
022513	10:33	958149	23lump	40	853	3
022513	10:33	958149	win	41	2968	win
022513	10:33	958149	18win	42	992	8
022513	10:33	958149	jabe	43	4366	jabe
022513	10:33	958149	2jabe	44	1614	5
022513	10:33	958149	yofe	45	4499	yofe
022513	10:33	958149	1yofe	46	694	4
022513	10:33	958149	soob	47	2344	soob
022513	10:33	958149	7soob	48	712	3
022513	10:33	958149	slap	49	2529	slap
022513	10:33	958149	16slap	50	1314	3
022513	10:33	958149	nobe	51	2955	nobe
022513	10:33	958149	1nobe	52	499	5
022513	10:33	958149	frog	53	2877	frog
022513	10:33	958149	15frog	54	856	5
022513	10:33	958149	more	55	2251	more
022513	10:33	958149	12more	56	1256	5
022513	10:33	958149	hide	57	3027	hide
022513	10:33	958149	13hide	58	1640	5
022513	10:33	958149	peka	59	4069	peka
022513	10:33	958149	4peka	60	481	5
022513	10:33	958149	scar	61	2339	scar
022513	10:33	958149	20scar	62	612	3
022513	10:33	958149	cow	63	2313	cow
022513	10:33	958149	16cow	64	578	5
022513	10:33	958149	pems	65	1824	pems
022513	10:33	958149	4pems	66	462	5
022513	10:33	958149	yeet	67	2232	yeet
022513	10:33	958149	3yeet	68	565	5
022513	10:33	958149	sad	69	1732	sad
022513	10:33	958149	20sad	70	628	2
022513	10:33	958149	wish	71	2129	wish
022513	10:33	958149	17wish	72	530	7
022513	10:33	958149	lik	73	2418	lik
022513	10:33	958149	11lik	74	607	6
022513	10:33	958149	jobe	75	3469	jobe
022513	10:33	958149	1jobe	76	537	5
022513	10:33	958149	voom	77	3817	voom
022513	10:33	958149	7voom	78	903	6
022513	10:33	958149	tage	79	2128	tage
022513	10:33	958149	9tage	80	497	5
022513	10:33	958149	yate	81	3619	yate
022513	10:33	958149	2yate	82	408	5
022513	10:33	958149	yoop	83	2814	yoob
022513	10:33	958149	11yoop	84	868	5
022513	10:33	958149	tutk	85	3310	tutk
022513	10:33	958149	5tutk	86	608	5
022513	10:33	958149	life	87	2078	life
022513	10:33	958149	12life	88	816	5
022513	10:33	958149	woem	89	3117	woem
022513	10:33	958149	4woem	90	967	5
022513	10:33	958149	silk	91	2286	silk
022513	10:33	958149	19silk	92	833	7
022513	10:33	958149	slin	93	2437	slin
022513	10:33	958149	6slin	94	1034	3
022513	10:33	958149	hay	95	2326	hay
022513	10:33	958149	17hay	96	703	6
022513	10:33	958149	tove	97	2545	tove
022513	10:33	958149	3tove	98	873	6
022513	10:33	958149	voke	99	2692	voke
022513	10:33	958149	6voke	100	559	4
022513	10:33	958149	pill	101	2854	pill
022513	10:33	958149	23pill	102	514	5
022513	10:33	958149	nofe	103	2243	nofe
022513	10:33	958149	1nofe	104	719	5
022513	10:33	958149	jufe	105	2600	jufe
022513	10:33	958149	24jufe	106	887	5
022513	10:33	958149	girl	107	2449	girl
022513	10:33	958149	17girl	108	1565	5
022513	10:33	958149	neeb	109	2612	neeb
022513	10:33	958149	3neeb	110	514	4
022513	10:33	958149	foof	111	2171	foof
022513	10:33	958149	7foof	112	962	5
022513	10:33	958149	flin	113	2201	flin
022513	10:33	958149	6flin	114	503	5
022513	10:33	958149	meef	115	2305	meef
022513	10:33	958149	3meef	116	611	5
022513	10:33	958149	lool	117	2159	lool
022513	10:33	958149	11lool	118	463	7
022513	10:33	958149	wasp	119	2242	wasp
022513	10:33	958149	15wasp	120	606	2
022513	10:33	958149	tomb	121	2580	tomb
022513	10:33	958149	19tomb	122	1267	1
022513	10:33	958149	mafe	123	2166	mafe
022513	10:33	958149	2mafe	124	3382	6
022513	10:33	958149	snob	125	2916	snob
022513	10:33	958149	18snob	126	1062	2
022513	10:33	958149	voop	127	4217	voop
022513	10:33	958149	7voop	128	872	2
022513	10:33	958149	pluk	129	2626	pluk
022513	10:33	958149	10pluk	130	927	5
022513	10:33	958149	obey	131	2871	obey
022513	10:33	958149	14obey	132	2507	6
022513	10:33	958149	wac	133	2949	wac
022513	10:33	958149	8wac	134	1582	5
022513	10:33	958149	bath	135	3108	bath
022513	10:33	958149	15bath	136	607	5
022513	10:33	958149	leel	137	3852	leel
022513	10:33	958149	3leel	138	2121	5
022513	10:33	958149	aqil	139	5858	aqil
022513	10:33	958149	24aqil	140	1111	5
022513	10:33	958149	nilo	141	3880	nilo
022513	10:33	958149	11nilo	142	891	5
022513	10:33	958149	nude	143	2589	nude
022513	10:33	958149	13nude	144	500	5
022513	10:33	958149	soog	145	2326	soog
022513	10:33	958149	7soog	146	654	5
022513	10:33	958149	cute	147	2562	cute
022513	10:33	958149	15cute	148	762	6
022513	10:33	958149	eat	149	2473	eat
022513	10:33	958149	20eat	150	428	6
022513	10:33	958149	zabe	151	3432	zabe
022513	10:33	958149	9zabe	152	630	5
022513	10:33	958149	baby	153	3082	baby
022513	10:33	958149	15baby	154	605	7
022513	10:33	958149	zafe	155	2890	zafe
022513	10:33	958149	9zafe	156	661	5
022513	10:33	958149	bowl	157	2152	bowl
022513	10:33	958149	17bowl	158	648	5
022513	10:33	958149	pom	159	2188	pom
022513	10:33	958149	22pom	160	579	5
022513	10:33	958149	joom	161	3273	joom
022513	10:33	958149	11joom	162	516	5
022513	10:33	958149	kige	163	2573	kige
022513	10:33	958149	24kige	164	1189	5
022513	10:33	958149	kabe	165	3051	kabe
022513	10:33	958149	2kabe	166	880	5
022513	10:33	958149	seat	167	2898	seat
022513	10:33	958149	20seat	168	700	5
022513	10:33	958149	vape	169	2414	vape
022513	10:33	958149	2vape	170	811	5
022513	10:33	958149	dlip	171	3336	dlip
022513	10:33	958149	6dlip	172	753	5
022513	10:33	958149	fear	173	2433	fear
022513	10:33	958149	21fear	174	1278	2
022513	10:33	958149	song	175	2328	song
022513	10:33	958149	18song	176	641	8
022513	10:33	958149	lip	177	2469	lip
022513	10:33	958149	22lip	178	1273	5
022513	10:33	958149	melb	179	3308	melb
022513	10:33	958149	4melb	180	470	5
022513	10:33	958149	nuad	181	3417	nuad
022513	10:33	958149	24nuad	182	567	5
022513	10:33	958149	hil	183	2726	hil
022513	10:33	958149	10hil	184	350	5
022513	10:33	958149	jip	185	4774	jip
022513	10:33	958149	22jip	186	582	3
022513	10:33	958149	anay	187	2572	anay
022513	10:33	958149	5anay	188	924	5
022513	10:33	958149	lust	189	2525	lust
022513	10:33	958149	12lust	190	558	2
022513	10:33	958149	tez	191	2774	tez
022513	10:33	958149	8tez	192	598	5
022513	10:33	958149	yame	193	3283	yame
022513	10:33	958149	5yame	194	558	5
022513	10:33	958149	name	195	2766	name
022513	10:33	958149	17name	196	509	5
022513	10:33	958149	dawn	197	2334	dawn
022513	10:33	958149	14dawn	198	927	8
022513	10:33	958149	sun	199	2455	sun
022513	10:33	958149	19sun	200	658	9
022513	10:33	958149	arm	201	2382	arm
022513	10:33	958149	14arm	202	597	5
022513	10:33	958149	pobe	203	2563	pobe
022513	10:33	958149	1pobe	204	1394	5
022513	10:33	958149	fish	205	2328	fish
022513	10:33	958149	16fish	206	401	5
022513	10:33	958149	lids	207	2286	lids
022513	10:33	958149	12lids	208	849	5
022513	10:33	958149	zest	209	3277	zest
022513	10:33	958149	20zest	210	1056	6
022513	10:33	958149	celm	211	2644	celm
022513	10:33	958149	24celm	212	438	5
022513	10:33	958149	yip	213	6908	yip
022513	10:33	958149	22yip	214	807	5
022513	10:33	958149	noon	215	2572	noon
022513	10:33	958149	23noon	216	1172	7
022513	10:33	958149	cell	217	2347	cell
022513	10:33	958149	13cell	218	651	5
022513	10:33	958149	air	219	2279	air
022513	10:33	958149	16air	220	1322	8
022513	10:33	958149	veed	221	3051	veed
022513	10:33	958149	9veed	222	1575	7
022513	10:33	958149	wife	223	2206	wife
022513	10:33	958149	14wife	224	836	5
022513	10:33	958149	waf	225	2312	waf
022513	10:33	958149	8waf	226	698	6
022513	10:33	958149	lim	227	2572	lim
022513	10:33	958149	10lim	228	507	5
022513	10:33	958149	liar	229	2276	liar
022513	10:33	958149	12liar	230	695	2
022513	10:33	958149	bed	231	2185	bed
022513	10:33	958149	21bed	232	464	8
022513	10:33	958149	star	233	2555	star
022513	10:33	958149	21star	234	562	5
022513	10:33	958149	clim	235	2761	clim
022513	10:33	958149	6clim	236	545	5
022513	10:33	958149	alfi	237	6313	alfi
022513	10:33	958149	4alfi	238	476	5
022513	10:33	958149	fat	239	2117	fat
022513	10:33	958149	21fat	240	544	1
022713	10:23	56	speed	1	2713	23
022713	10:23	56	error	2	2618	100
022713	10:23	56	whichhand	3	18312	right
022713	10:23	56	yane	1	11234	yane
022713	10:23	56	5yane	2	10978	8
022713	10:23	56	army	3	6028	army
022713	10:23	56	13army	4	3097	8
022713	10:23	56	beeg	5	8268	beeg
022713	10:23	56	9beeg	6	3778	5
022713	10:23	56	lion	7	4649	lion
022713	10:23	56	23lion	8	806	7
022713	10:23	56	taxe	9	3908	taxe
022713	10:23	56	8taxe	10	766	5
022713	10:23	56	pest	11	6853	pest
022713	10:23	56	14pest	12	4475	8
022713	10:23	56	sour	13	4110	sour
022713	10:23	56	18sour	14	2993	9
022713	10:23	56	jame	15	3231	jame
022713	10:23	56	5jame	16	1100	9
022713	10:23	56	ugly	17	3941	ugly
022713	10:23	56	19ugly	18	1799	5
022713	10:23	56	mom	19	2653	mom
022713	10:23	56	23mom	20	681	9
022713	10:23	56	lake	21	4699	lake
022713	10:23	56	16lake	22	1766	5
022713	10:23	56	bees	23	5853	bees
022713	10:23	56	21bees	24	4595	4
022713	10:23	56	nip	25	3049	nip
022713	10:23	56	22nip	26	1318	5
022713	10:23	56	nop	27	3007	nop
022713	10:23	56	10nop	28	757	7
022713	10:23	56	blue	29	5221	blue
022713	10:23	56	18blue	30	1083	9
022713	10:23	56	cold	31	3214	cold
022713	10:23	56	19cold	32	1659	6
022713	10:23	56	lice	33	5206	lice
022713	10:23	56	13lice	34	678	5
022713	10:23	56	dax	35	3704	dax
022713	10:23	56	8dax	36	1251	5
022713	10:23	56	plin	37	3462	plin
022713	10:23	56	10plin	38	2178	4
022713	10:23	56	lump	39	5128	lump
022713	10:23	56	23lump	40	763	5
022713	10:23	56	win	41	2665	win
022713	10:23	56	18win	42	733	9
022713	10:23	56	jabe	43	8325	jabe
022713	10:23	56	2jabe	44	896	8
022713	10:23	56	yofe	45	4626	yofe
022713	10:23	56	1yofe	46	1159	4
022713	10:23	56	soob	47	2823	soob
022713	10:23	56	7soob	48	741	5
022713	10:23	56	slap	49	3453	slap
022713	10:23	56	16slap	50	953	6
022713	10:23	56	nobe	51	4577	nobe
022713	10:23	56	1nobe	52	968	8
022713	10:23	56	frog	53	4991	frog
022713	10:23	56	15frog	54	838	9
022713	10:23	56	more	55	3131	more
022713	10:23	56	12more	56	844	9
022713	10:23	56	hide	57	4175	hide
022713	10:23	56	13hide	58	631	3
022713	10:23	56	peka	59	4547	peka
022713	10:23	56	4peka	60	860	4
022713	10:23	56	scar	61	4767	scar
022713	10:23	56	20scar	62	3023	5
022713	10:23	56	cow	63	3533	cow
022713	10:23	56	16cow	64	798	9
022713	10:23	56	pems	65	4123	pems
022713	10:23	56	4pems	66	2309	7
022713	10:23	56	yeet	67	3415	yeet
022713	10:23	56	3yeet	68	941	6
022713	10:23	56	sad	69	4013	sad
022713	10:23	56	20sad	70	1403	4
022713	10:23	56	wish	71	3121	wish
022713	10:23	56	17wish	72	1531	9
022713	10:23	56	lik	73	3307	lik
022713	10:23	56	11lik	74	693	5
022713	10:23	56	jobe	75	3855	jobe
022713	10:23	56	1jobe	76	1620	5
022713	10:23	56	voom	77	3425	voom
022713	10:23	56	7voom	78	855	5
022713	10:23	56	tage	79	3562	tage
022713	10:23	56	9tage	80	1314	6
022713	10:23	56	yate	81	3227	yate
022713	10:23	56	2yate	82	1312	5
022713	10:23	56	yoop	83	3498	yoop
022713	10:23	56	11yoop	84	684	4
022713	10:23	56	tutk	85	7126	tutk
022713	10:23	56	5tutk	86	1777	5
022713	10:23	56	life	87	2751	life
022713	10:23	56	12life	88	895	9
022713	10:23	56	woem	89	4393	woem
022713	10:23	56	4woem	90	968	8
022713	10:23	56	silk	91	4463	silk
022713	10:23	56	19silk	92	875	8
022713	10:23	56	slin	93	3598	slin
022713	10:23	56	6slin	94	1045	7
022713	10:23	56	hay	95	2944	hay
022713	10:23	56	17hay	96	2849	5
022713	10:23	56	tove	97	3917	tove
022713	10:23	56	3tove	98	1191	5
022713	10:23	56	voke	99	4293	voke
022713	10:23	56	6voke	100	2824	5
022713	10:23	56	pill	101	6478	pill
022713	10:23	56	23pill	102	3178	2
022713	10:23	56	nofe	103	4209	nofe
022713	10:23	56	1nofe	104	1095	5
022713	10:23	56	jufe	105	4000	jufe
022713	10:23	56	24jufe	106	3263	5
022713	10:23	56	girl	107	3267	girl
022713	10:23	56	17girl	108	1423	9
022713	10:23	56	neeb	109	5612	neeb
022713	10:23	56	3neeb	110	723	5
022713	10:23	56	foof	111	3811	foof
022713	10:23	56	7foof	112	617	5
022713	10:23	56	flin	113	3702	flin
022713	10:23	56	6flin	114	1969	5
022713	10:23	56	meef	115	3016	meef
022713	10:23	56	3meef	116	1062	5
022713	10:23	56	lool	117	2921	lool
022713	10:23	56	11lool	118	1186	8
022713	10:23	56	wasp	119	4545	wasp
022713	10:23	56	15wasp	120	1194	6
022713	10:23	56	tomb	121	4815	tomb
022713	10:23	56	19tomb	122	1062	5
022713	10:23	56	mafe	123	4609	mafe
022713	10:23	56	2mafe	124	1751	6
022713	10:23	56	snob	125	4055	snob
022713	10:23	56	18snob	126	1139	5
022713	10:23	56	voop	127	3972	voop
022713	10:23	56	7voop	128	924	6
022713	10:23	56	pluk	129	3501	pluk
022713	10:23	56	10pluk	130	2007	7
022713	10:23	56	obey	131	4605	obey
022713	10:23	56	14obey	132	796	4
022713	10:23	56	wac	133	3106	wac
022713	10:23	56	8wac	134	1668	5
022713	10:23	56	bath	135	3263	bath
022713	10:23	56	15bath	136	1067	9
022713	10:23	56	leel	137	3174	leel
022713	10:23	56	3leel	138	790	5
022713	10:23	56	aqil	139	4260	aqil
022713	10:23	56	24aqil	140	1080	5
022713	10:23	56	nilo	141	5210	nilo
022713	10:23	56	11nilo	142	2201	5
022713	10:23	56	nude	143	5159	nude
022713	10:23	56	13nude	144	1335	5
022713	10:23	56	soog	145	3624	soog
022713	10:23	56	7soog	146	990	8
022713	10:23	56	cute	147	3836	cute
022713	10:23	56	15cute	148	1113	8
022713	10:23	56	eat	149	3571	eat
022713	10:23	56	20eat	150	866	9
022713	10:23	56	zabe	151	4781	zabe
022713	10:23	56	9zabe	152	797	8
022713	10:23	56	baby	153	2850	baby
022713	10:23	56	15baby	154	863	9
022713	10:23	56	zafe	155	4722	zafe
022713	10:23	56	9zafe	156	924	8
022713	10:23	56	bowl	157	4909	bowl
022713	10:23	56	17bowl	158	703	9
022713	10:23	56	pom	159	2897	pom
022713	10:23	56	22pom	160	651	5
022713	10:23	56	joom	161	3423	joom
022713	10:23	56	11joom	162	1245	5
022713	10:23	56	kige	163	4624	kige
022713	10:23	56	24kige	164	959	5
022713	10:23	56	kabe	165	4806	kabe
022713	10:23	56	2kabe	166	765	5
022713	10:23	56	seat	167	6052	seat
022713	10:23	56	20seat	168	1657	7
022713	10:23	56	vape	169	4509	vape
022713	10:23	56	2vape	170	879	5
022713	10:23	56	dlip	171	5594	dlip
022713	10:23	56	6dlip	172	705	6
022713	10:23	56	fear	173	3154	fear
022713	10:23	56	21fear	174	819	3
022713	10:23	56	song	175	2832	song
022713	10:23	56	18song	176	741	9
022713	10:23	56	lip	177	3421	lip
022713	10:23	56	22lip	178	619	8
022713	10:23	56	melb	179	4391	melb
022713	10:23	56	4melb	180	895	5
022713	10:23	56	nuad	181	8544	nuad
022713	10:23	56	24nuad	182	1010	5
022713	10:23	56	hil	183	3543	hil
022713	10:23	56	10hil	184	800	5
022713	10:23	56	jip	185	2909	jip
022713	10:23	56	22jip	186	855	5
022713	10:23	56	anay	187	7843	anay
022713	10:23	56	5anay	188	1849	5
022713	10:23	56	lust	189	5844	lust
022713	10:23	56	12lust	190	2010	5
022713	10:23	56	tez	191	3615	tez
022713	10:23	56	8tez	192	645	4
022713	10:23	56	yame	193	3353	yame
022713	10:23	56	5yame	194	913	5
022713	10:23	56	name	195	2874	name
022713	10:23	56	17name	196	718	7
022713	10:23	56	dawn	197	5006	dawn
022713	10:23	56	14dawn	198	742	6
022713	10:23	56	sun	199	2510	sun
022713	10:23	56	19sun	200	727	9
022713	10:23	56	arm	201	3167	arm
022713	10:23	56	14arm	202	1319	9
022713	10:23	56	pobe	203	4288	pobe
022713	10:23	56	1pobe	204	860	6
022713	10:23	56	fish	205	3031	fish
022713	10:23	56	16fish	206	1116	8
022713	10:23	56	lids	207	3853	lids
022713	10:23	56	12lids	208	2738	5
022713	10:23	56	zest	209	5258	zest
022713	10:23	56	20zest	210	2391	5
022713	10:23	56	celm	211	3198	celm
022713	10:23	56	24celm	212	836	5
022713	10:23	56	yip	213	4256	yip
022713	10:23	56	22yip	214	1101	5
022713	10:23	56	noon	215	2871	noon
022713	10:23	56	23noon	216	482	9
022713	10:23	56	cell	217	3156	cell
022713	10:23	56	13cell	218	765	1
022713	10:23	56	air	219	3308	air
022713	10:23	56	16air	220	1078	5
022713	10:23	56	veed	221	3665	veed
022713	10:23	56	9veed	222	613	5
022713	10:23	56	wife	223	3081	wife
022713	10:23	56	14wife	224	596	9
022713	10:23	56	waf	225	2994	waf
022713	10:23	56	8waf	226	848	5
022713	10:23	56	lim	227	2868	lim
022713	10:23	56	10lim	228	832	6
022713	10:23	56	liar	229	3804	liar
022713	10:23	56	12liar	230	747	5
022713	10:23	56	bed	231	2794	bed
022713	10:23	56	21bed	232	800	9
022713	10:23	56	star	233	10350	star
022713	10:23	56	21star	234	849	9
022713	10:23	56	clim	235	3188	clim
022713	10:23	56	6clim	236	755	8
022713	10:23	56	alfi	237	3491	alfi
022713	10:23	56	4alfi	238	518	5
022713	10:23	56	fat	239	2791	fat
022713	10:23	56	21fat	240	830	1
022713	11:06	9849	speed	1	2896	42
022713	11:06	9849	error	2	2961	92
022713	11:06	9849	whichhand	3	7869	Left
022713	11:06	9849	yane	1	12407	yana
022713	11:06	9849	5yane	2	6288	5
022713	11:06	9849	army	3	5212	army
022713	11:06	9849	13army	4	4810	6
022713	11:06	9849	beeg	5	3201	beeg
022713	11:06	9849	9beeg	6	2055	5
022713	11:06	9849	lion	7	7403	lion
022713	11:06	9849	23lion	8	2651	6
022713	11:06	9849	taxe	9	6247	taxe
022713	11:06	9849	8taxe	10	1571	4
022713	11:06	9849	pest	11	4739	pest
022713	11:06	9849	14pest	12	2373	4
022713	11:06	9849	sour	13	5748	sour
022713	11:06	9849	18sour	14	2046	4
022713	11:06	9849	jame	15	3122	jame
022713	11:06	9849	5jame	16	1012	5
022713	11:06	9849	ugly	17	2752	ugly
022713	11:06	9849	19ugly	18	5513	4
022713	11:06	9849	mom	19	4091	mom
022713	11:06	9849	23mom	20	2439	7
022713	11:06	9849	lake	21	6323	lake
022713	11:06	9849	16lake	22	2366	8
022713	11:06	9849	bees	23	3014	bees
022713	11:06	9849	21bees	24	2148	4
022713	11:06	9849	nip	25	3211	nip
022713	11:06	9849	22nip	26	4729	9
022713	11:06	9849	nop	27	2747	nop
022713	11:06	9849	10nop	28	1371	8
022713	11:06	9849	blue	29	6002	blue
022713	11:06	9849	18blue	30	4809	7
022713	11:06	9849	cold	31	4296	cold
022713	11:06	9849	19cold	32	2050	3
022713	11:06	9849	lice	33	2646	lice
022713	11:06	9849	13lice	34	2739	3
022713	11:06	9849	dax	35	3868	dax
022713	11:06	9849	8dax	36	2104	6
022713	11:06	9849	plin	37	5474	plin
022713	11:06	9849	10plin	38	966	5
022713	11:06	9849	lump	39	2725	lump
022713	11:06	9849	23lump	40	2223	2
022713	11:06	9849	win	41	2852	win
022713	11:06	9849	18win	42	1352	6
022713	11:06	9849	jabe	43	2616	jabe
022713	11:06	9849	2jabe	44	2125	8
022713	11:06	9849	yofe	45	2894	yofe
022713	11:06	9849	1yofe	46	2511	5
022713	11:06	9849	soob	47	2514	soob
022713	11:06	9849	7soob	48	2348	7
022713	11:06	9849	slap	49	7428	slap
022713	11:06	9849	16slap	50	2514	5
022713	11:06	9849	nobe	51	2604	nobe
022713	11:06	9849	1nobe	52	1522	6
022713	11:06	9849	frog	53	3043	frog
022713	11:06	9849	15frog	54	712	6
022713	11:06	9849	more	55	2680	more
022713	11:06	9849	12more	56	6555	5
022713	11:06	9849	hide	57	3221	hide
022713	11:06	9849	13hide	58	3914	5
022713	11:06	9849	peka	59	3060	peka
022713	11:06	9849	4peka	60	784	7
022713	11:06	9849	scar	61	2103	scar
022713	11:06	9849	20scar	62	2521	4
022713	11:06	9849	cow	63	2290	cow
022713	11:06	9849	16cow	64	709	7
022713	11:06	9849	pems	65	3551	pems
022713	11:06	9849	4pems	66	1759	5
022713	11:06	9849	yeet	67	3806	yeet
022713	11:06	9849	3yeet	68	6405	7
022713	11:06	9849	sad	69	2028	sad
022713	11:06	9849	20sad	70	2833	4
022713	11:06	9849	wish	71	3734	wish
022713	11:06	9849	17wish	72	1431	6
022713	11:06	9849	lik	73	2804	like
022713	11:06	9849	11lik	74	2090	5
022713	11:06	9849	jobe	75	4429	jobe
022713	11:06	9849	1jobe	76	1019	6
022713	11:06	9849	voom	77	3415	voom
022713	11:06	9849	7voom	78	1669	6
022713	11:06	9849	tage	79	2424	tage
022713	11:06	9849	9tage	80	2062	4
022713	11:06	9849	yate	81	8697	yate
022713	11:06	9849	2yate	82	1861	5
022713	11:06	9849	yoop	83	3048	yoop
022713	11:06	9849	11yoop	84	6717	7
022713	11:06	9849	tutk	85	4584	tutk
022713	11:06	9849	5tutk	86	903	5
022713	11:06	9849	life	87	2457	life
022713	11:06	9849	12life	88	4061	6
022713	11:06	9849	woem	89	3529	woem
022713	11:06	9849	4woem	90	2298	5
022713	11:06	9849	silk	91	3516	silk
022713	11:06	9849	19silk	92	3910	5
022713	11:06	9849	slin	93	2880	slin
022713	11:06	9849	6slin	94	1531	5
022713	11:06	9849	hay	95	2692	hay
022713	11:06	9849	17hay	96	854	6
022713	11:06	9849	tove	97	2338	tove
022713	11:06	9849	3tove	98	5571	5
022713	11:06	9849	voke	99	3116	voke
022713	11:06	9849	6voke	100	1077	5
022713	11:06	9849	pill	101	2495	pill
022713	11:06	9849	23pill	102	1554	7
022713	11:06	9849	nofe	103	2210	nofe
022713	11:06	9849	1nofe	104	559	6
022713	11:06	9849	jufe	105	2398	jufe
022713	11:06	9849	24jufe	106	1476	6
022713	11:06	9849	girl	107	1991	girl
022713	11:06	9849	17girl	108	1134	7
022713	11:06	9849	neeb	109	3150	neeb
022713	11:06	9849	3neeb	110	2334	8
022713	11:06	9849	foof	111	2415	foof
022713	11:06	9849	7foof	112	1597	7
022713	11:06	9849	flin	113	2795	flin
022713	11:06	9849	6flin	114	2569	7
022713	11:06	9849	meef	115	3456	meef
022713	11:06	9849	3meef	116	2293	7
022713	11:06	9849	lool	117	3063	lool
022713	11:06	9849	11lool	118	4483	6
022713	11:06	9849	wasp	119	2478	wasp
022713	11:06	9849	15wasp	120	2033	5
022713	11:06	9849	tomb	121	3078	tomb
022713	11:06	9849	19tomb	122	521	5
022713	11:06	9849	mafe	123	2762	mafe
022713	11:06	9849	2mafe	124	1929	5
022713	11:06	9849	snob	125	2738	snob
022713	11:06	9849	18snob	126	2347	3
022713	11:06	9849	voop	127	4771	voop
022713	11:06	9849	7voop	128	595	5
022713	11:06	9849	pluk	129	3561	pluk
022713	11:06	9849	10pluk	130	1457	5
022713	11:06	9849	obey	131	2845	obey
022713	11:06	9849	14obey	132	1345	6
022713	11:06	9849	wac	133	1920	wac
022713	11:06	9849	8wac	134	498	5
022713	11:06	9849	bath	135	2308	bath
022713	11:06	9849	15bath	136	1661	5
022713	11:06	9849	leel	137	1705	lee
022713	11:06	9849	3leel	138	506	7
022713	11:06	9849	aqil	139	4180	aqil
022713	11:06	9849	24aqil	140	1587	5
022713	11:06	9849	nilo	141	3106	nilo
022713	11:06	9849	11nilo	142	1604	5
022713	11:06	9849	nude	143	1850	nude
022713	11:06	9849	13nude	144	510	7
022713	11:06	9849	soog	145	1775	soog
022713	11:06	9849	7soog	146	598	7
022713	11:06	9849	cute	147	5356	cute
022713	11:06	9849	15cute	148	1989	6
022713	11:06	9849	eat	149	2076	eat
022713	11:06	9849	20eat	150	534	7
022713	11:06	9849	zabe	151	3335	zabe
022713	11:06	9849	9zabe	152	3968	7
022713	11:06	9849	baby	153	1824	baby
022713	11:06	9849	15baby	154	429	7
022713	11:06	9849	zafe	155	2481	zafe
022713	11:06	9849	9zafe	156	500	5
022713	11:06	9849	bowl	157	1950	bowl
022713	11:06	9849	17bowl	158	1245	6
022713	11:06	9849	pom	159	1953	pom
022713	11:06	9849	22pom	160	1489	5
022713	11:06	9849	joom	161	1852	joom
022713	11:06	9849	11joom	162	472	6
022713	11:06	9849	kige	163	3754	kige
022713	11:06	9849	24kige	164	3715	5
022713	11:06	9849	kabe	165	2573	kabe
022713	11:06	9849	2kabe	166	1572	6
022713	11:06	9849	seat	167	2148	seat
022713	11:06	9849	20seat	168	1068	5
022713	11:06	9849	vape	169	4615	vape
022713	11:06	9849	2vape	170	1453	8
022713	11:06	9849	dlip	171	3369	dlip
022713	11:06	9849	6dlip	172	440	5
022713	11:06	9849	fear	173	2053	fear
022713	11:06	9849	21fear	174	2073	4
022713	11:06	9849	song	175	1948	song
022713	11:06	9849	18song	176	436	7
022713	11:06	9849	lip	177	3400	lip
022713	11:06	9849	22lip	178	983	5
022713	11:06	9849	melb	179	4845	melb
022713	11:06	9849	4melb	180	1426	5
022713	11:06	9849	nuad	181	8198	nuad
022713	11:06	9849	24nuad	182	1110	5
022713	11:06	9849	hil	183	3071	hil
022713	11:06	9849	10hil	184	1707	5
022713	11:06	9849	jip	185	3069	jip
022713	11:06	9849	22jip	186	2529	5
022713	11:06	9849	anay	187	2322	anay
022713	11:06	9849	5anay	188	1651	5
022713	11:06	9849	lust	189	2383	lust
022713	11:06	9849	12lust	190	854	4
022713	11:06	9849	tez	191	3953	tez
022713	11:06	9849	8tez	192	482	5
022713	11:06	9849	yame	193	4196	yame
022713	11:06	9849	5yame	194	531	5
022713	11:06	9849	name	195	2123	name
022713	11:06	9849	17name	196	1732	5
022713	11:06	9849	dawn	197	3709	dawn
022713	11:06	9849	14dawn	198	935	6
022713	11:06	9849	sun	199	3527	sun
022713	11:06	9849	19sun	200	472	7
022713	11:06	9849	arm	201	2092	arm
022713	11:06	9849	14arm	202	1254	5
022713	11:06	9849	pobe	203	2482	pobe
022713	11:06	9849	1pobe	204	1253	5
022713	11:06	9849	fish	205	3344	fish
022713	11:06	9849	16fish	206	1089	5
022713	11:06	9849	lids	207	5475	lids
022713	11:06	9849	12lids	208	3143	5
022713	11:06	9849	zest	209	3144	zest
022713	11:06	9849	20zest	210	528	6
022713	11:06	9849	celm	211	2520	celm
022713	11:06	9849	24celm	212	514	4
022713	11:06	9849	yip	213	1786	yip
022713	11:06	9849	22yip	214	2121	7
022713	11:06	9849	noon	215	1963	noon
022713	11:06	9849	23noon	216	1106	5
022713	11:06	9849	cell	217	1955	cell
022713	11:06	9849	13cell	218	1315	5
022713	11:06	9849	air	219	1916	ai
022713	11:06	9849	16air	220	1286	5
022713	11:06	9849	veed	221	2169	veed
022713	11:06	9849	9veed	222	1071	5
022713	11:06	9849	wife	223	3403	wife
022713	11:06	9849	14wife	224	441	6
022713	11:06	9849	waf	225	2214	waf
022713	11:06	9849	8waf	226	427	5
022713	11:06	9849	lim	227	1967	lim
022713	11:06	9849	10lim	228	1230	5
022713	11:06	9849	liar	229	3035	liar
022713	11:06	9849	12liar	230	792	4
022713	11:06	9849	bed	231	3046	bed
022713	11:06	9849	21bed	232	642	7
022713	11:06	9849	star	233	1631	star
022713	11:06	9849	21star	234	691	7
022713	11:06	9849	clim	235	2749	clim
022713	11:06	9849	6clim	236	758	5
022713	11:06	9849	alfi	237	3557	alfi
022713	11:06	9849	4alfi	238	1118	5
022713	11:06	9849	fat	239	1919	fat
022713	11:06	9849	21fat	240	2232	2
030613	11:01	541	speed	1	5433	41
030613	11:01	541	error	2	2542	82
030613	11:01	541	whichhand	3	9831	Right
030613	11:01	541	yane	1	7167	yane
030613	11:01	541	5yane	2	6656	5
030613	11:01	541	army	3	3845	army
030613	11:01	541	13army	4	2906	4
030613	11:01	541	beeg	5	3124	beeg
030613	11:01	541	9beeg	6	3918	5
030613	11:01	541	lion	7	4192	lion
030613	11:01	541	23lion	8	2471	9
030613	11:01	541	taxe	9	3402	taxe
030613	11:01	541	8taxe	10	2769	4
030613	11:01	541	pest	11	3376	pest
030613	11:01	541	14pest	12	4031	3
030613	11:01	541	sour	13	3021	sour
030613	11:01	541	18sour	14	4179	4
030613	11:01	541	jame	15	2810	jame
030613	11:01	541	5jame	16	2423	7
030613	11:01	541	ugly	17	3709	ugly
030613	11:01	541	19ugly	18	2799	4
030613	11:01	541	mom	19	3029	mom
030613	11:01	541	23mom	20	1186	8
030613	11:01	541	lake	21	2753	lake
030613	11:01	541	16lake	22	1561	6
030613	11:01	541	bees	23	3232	bees
030613	11:01	541	21bees	24	8341	4
030613	11:01	541	nip	25	3375	nip
030613	11:01	541	22nip	26	1070	5
030613	11:01	541	nop	27	2865	nop
030613	11:01	541	10nop	28	901	6
030613	11:01	541	blue	29	3030	blue
030613	11:01	541	18blue	30	916	6
030613	11:01	541	cold	31	3357	cold
030613	11:01	541	19cold	32	1213	5
030613	11:01	541	lice	33	2658	lice
030613	11:01	541	13lice	34	2558	5
030613	11:01	541	dax	35	3094	dax
030613	11:01	541	8dax	36	4689	5
030613	11:01	541	plin	37	4348	plin
030613	11:01	541	10plin	38	4589	5
030613	11:01	541	lump	39	10293	lump
030613	11:01	541	23lump	40	2106	6
030613	11:01	541	win	41	2779	win
030613	11:01	541	18win	42	939	8
030613	11:01	541	jabe	43	3355	jabe
030613	11:01	541	2jabe	44	3155	6
030613	11:01	541	yofe	45	3284	yofe
030613	11:01	541	1yofe	46	2711	3
030613	11:01	541	soob	47	2872	soob
030613	11:01	541	7soob	48	1708	4
030613	11:01	541	slap	49	6301	slap
030613	11:01	541	16slap	50	7065	6
030613	11:01	541	nobe	51	3118	nobe
030613	11:01	541	1nobe	52	5168	6
030613	11:01	541	frog	53	2904	frog
030613	11:01	541	15frog	54	1915	5
030613	11:01	541	more	55	2524	more
030613	11:01	541	12more	56	1214	7
030613	11:01	541	hide	57	3075	hide
030613	11:01	541	13hide	58	2670	5
030613	11:01	541	peka	59	3354	peka
030613	11:01	541	4peka	60	3410	5
030613	11:01	541	scar	61	3248	scar
030613	11:01	541	20scar	62	1244	3
030613	11:01	541	cow	63	2520	cow
030613	11:01	541	16cow	64	5514	2
030613	11:01	541	pems	65	2772	pems
030613	11:01	541	4pems	66	2996	5
030613	11:01	541	yeet	67	2946	yeet
030613	11:01	541	3yeet	68	1843	2
030613	11:01	541	sad	69	2262	sad
030613	11:01	541	20sad	70	2258	4
030613	11:01	541	wish	71	3542	wish
030613	11:01	541	17wish	72	1214	6
030613	11:01	541	lik	73	2939	lik
030613	11:01	541	11lik	74	2037	4
030613	11:01	541	jobe	75	3105	jobe
030613	11:01	541	1jobe	76	20172	5
030613	11:01	541	voom	77	3104	voom
030613	11:01	541	7voom	78	1227	6
030613	11:01	541	tage	79	2575	tage
030613	11:01	541	9tage	80	3958	4
030613	11:01	541	yate	81	2678	yate
030613	11:01	541	2yate	82	2473	4
030613	11:01	541	yoop	83	3237	yoop
030613	11:01	541	11yoop	84	770	2
030613	11:01	541	tutk	85	3465	tutk
030613	11:01	541	5tutk	86	4653	1
030613	11:01	541	life	87	2554	life
030613	11:01	541	12life	88	1314	7
030613	11:01	541	woem	89	3123	woem
030613	11:01	541	4woem	90	1005	3
030613	11:01	541	silk	91	2698	silk
030613	11:01	541	19silk	92	4557	8
030613	11:01	541	slin	93	3005	slin
030613	11:01	541	6slin	94	1092	3
030613	11:01	541	hay	95	4182	hay
030613	11:01	541	17hay	96	1102	5
030613	11:01	541	tove	97	2855	tove
030613	11:01	541	3tove	98	795	4
030613	11:01	541	voke	99	3673	voke
030613	11:01	541	6voke	100	2805	3
030613	11:01	541	pill	101	3067	pill
030613	11:01	541	23pill	102	775	4
030613	11:01	541	nofe	103	2846	nofe
030613	11:01	541	1nofe	104	810	2
030613	11:01	541	jufe	105	3143	jufe
030613	11:01	541	24jufe	106	1400	3
030613	11:01	541	girl	107	2821	girl
030613	11:01	541	17girl	108	1131	8
030613	11:01	541	neeb	109	4491	neeb
030613	11:01	541	3neeb	110	887	2
030613	11:01	541	foof	111	2585	foof
030613	11:01	541	7foof	112	2816	4
030613	11:01	541	flin	113	2685	flin
030613	11:01	541	6flin	114	2024	4
030613	11:01	541	meef	115	2557	meef
030613	11:01	541	3meef	116	1662	3
030613	11:01	541	lool	117	3073	lool
030613	11:01	541	11lool	118	3221	1
030613	11:01	541	wasp	119	3259	wasp
030613	11:01	541	15wasp	120	1030	1
030613	11:01	541	tomb	121	5451	tomb
030613	11:01	541	19tomb	122	1496	3
030613	11:01	541	mafe	123	3290	mafe
030613	11:01	541	2mafe	124	2757	3
030613	11:01	541	snob	125	4621	snob
030613	11:01	541	18snob	126	2483	6
030613	11:01	541	voop	127	2998	voop
030613	11:01	541	7voop	128	893	2
030613	11:01	541	pluk	129	3327	pluk
030613	11:01	541	10pluk	130	784	2
030613	11:01	541	obey	131	2822	obey
030613	11:01	541	14obey	132	4420	3
030613	11:01	541	wac	133	3178	wac
030613	11:01	541	8wac	134	1177	4
030613	11:01	541	bath	135	4167	bath
030613	11:01	541	15bath	136	1575	6
030613	11:01	541	leel	137	2863	leel
030613	11:01	541	3leel	138	1026	1
030613	11:01	541	aqil	139	3503	aqil
030613	11:01	541	24aqil	140	2457	2
030613	11:01	541	nilo	141	3309	nilo
030613	11:01	541	11nilo	142	3039	3
030613	11:01	541	nude	143	3516	nude
030613	11:01	541	13nude	144	1502	7
030613	11:01	541	soog	145	4303	soog
030613	11:01	541	7soog	146	1595	3
030613	11:01	541	cute	147	2544	cute
030613	11:01	541	15cute	148	969	7
030613	11:01	541	eat	149	3056	eat
030613	11:01	541	20eat	150	1356	6
030613	11:01	541	zabe	151	2788	zabe
030613	11:01	541	9zabe	152	2971	6
030613	11:01	541	baby	153	2746	baby
030613	11:01	541	15baby	154	523	6
030613	11:01	541	zafe	155	2715	zafe
030613	11:01	541	9zafe	156	1373	4
030613	11:01	541	bowl	157	7964	bowl
030613	11:01	541	17bowl	158	2989	6
030613	11:01	541	pom	159	4652	pom
030613	11:01	541	22pom	160	890	6
030613	11:01	541	joom	161	7684	joom
030613	11:01	541	11joom	162	6640	5
030613	11:01	541	kige	163	2550	kige
030613	11:01	541	24kige	164	6575	3
030613	11:01	541	kabe	165	2703	kabe
030613	11:01	541	2kabe	166	937	6
030613	11:01	541	seat	167	2809	seat
030613	11:01	541	20seat	168	959	5
030613	11:01	541	vape	169	2662	vape
030613	11:01	541	2vape	170	5850	2
030613	11:01	541	dlip	171	2879	dlip
030613	11:01	541	6dlip	172	514	3
030613	11:01	541	fear	173	2651	fear
030613	11:01	541	21fear	174	3751	5
030613	11:01	541	song	175	2776	song
030613	11:01	541	18song	176	911	7
030613	11:01	541	lip	177	2480	lip
030613	11:01	541	22lip	178	4819	6
030613	11:01	541	melb	179	2889	melb
030613	11:01	541	4melb	180	7956	6
030613	11:01	541	nuad	181	4750	nuad
030613	11:01	541	24nuad	182	791	3
030613	11:01	541	hil	183	2901	hil
030613	11:01	541	10hil	184	11319	4
030613	11:01	541	jip	185	2636	jip
030613	11:01	541	22jip	186	1881	5
030613	11:01	541	anay	187	3027	anay
030613	11:01	541	5anay	188	4304	5
030613	11:01	541	lust	189	2515	lust
030613	11:01	541	12lust	190	709	6
030613	11:01	541	tez	191	2742	tez
030613	11:01	541	8tez	192	558	6
030613	11:01	541	yame	193	3150	yame
030613	11:01	541	5yame	194	854	5
030613	11:01	541	name	195	2962	name
030613	11:01	541	17name	196	1010	6
030613	11:01	541	dawn	197	3287	dawn
030613	11:01	541	14dawn	198	3314	6
030613	11:01	541	sun	199	3571	sun
030613	11:01	541	19sun	200	1451	6
030613	11:01	541	arm	201	2671	arm
030613	11:01	541	14arm	202	5163	6
030613	11:01	541	pobe	203	2483	pobe
030613	11:01	541	1pobe	204	3614	5
030613	11:01	541	fish	205	2916	fish
030613	11:01	541	16fish	206	14061	4
030613	11:01	541	lids	207	3749	lids
030613	11:01	541	12lids	208	4853	6
030613	11:01	541	zest	209	2842	zest
030613	11:01	541	20zest	210	1846	8
030613	11:01	541	celm	211	4554	celm
030613	11:01	541	24celm	212	2931	5
030613	11:01	541	yip	213	3236	yip
030613	11:01	541	22yip	214	1634	3
030613	11:01	541	noon	215	4998	noon
030613	11:01	541	23noon	216	3677	5
030613	11:01	541	cell	217	3288	cell
030613	11:01	541	13cell	218	1668	6
030613	11:01	541	air	219	2495	air
030613	11:01	541	16air	220	6697	6
030613	11:01	541	veed	221	3596	veed
030613	11:01	541	9veed	222	3755	6
030613	11:01	541	wife	223	2411	wife
030613	11:01	541	14wife	224	433	5
030613	11:01	541	waf	225	4453	waf
030613	11:01	541	8waf	226	2162	3
030613	11:01	541	lim	227	2513	lim
030613	11:01	541	10lim	228	1403	6
030613	11:01	541	liar	229	2552	liar
030613	11:01	541	12liar	230	3881	4
030613	11:01	541	bed	231	3228	bed
030613	11:01	541	21bed	232	30720	6
030613	11:01	541	star	233	2891	star
030613	11:01	541	21star	234	1542	6
030613	11:01	541	clim	235	2919	clim
030613	11:01	541	6clim	236	736	4
030613	11:01	541	alfi	237	5641	alfi
030613	11:01	541	4alfi	238	5054	3
030613	11:01	541	fat	239	2635	fat
030613	11:01	541	21fat	240	7232	3
032713	09:55	7	speed	1	4625	58
032713	09:55	7	error	2	3429	100
032713	09:55	7	whichhand	3	15947	Right
032713	09:55	7	yane	1	6350	yane
032713	09:55	7	5yane	2	14530	4
032713	09:55	7	army	3	5042	army
032713	09:55	7	13army	4	3592	8
032713	09:55	7	beeg	5	5332	beeg
032713	09:55	7	9beeg	6	2122	4
032713	09:55	7	lion	7	4416	lion
032713	09:55	7	23lion	8	2049	8
032713	09:55	7	taxe	9	4506	taxe
032713	09:55	7	8taxe	10	4608	3
032713	09:55	7	pest	11	4804	pest
032713	09:55	7	14pest	12	2910	6
032713	09:55	7	sour	13	3332	sour
032713	09:55	7	18sour	14	945	6
032713	09:55	7	jame	15	3613	jame
032713	09:55	7	5jame	16	3182	3
032713	09:55	7	ugly	17	4106	ugly
032713	09:55	7	19ugly	18	3152	2
032713	09:55	7	mom	19	2957	mom
032713	09:55	7	23mom	20	937	9
032713	09:55	7	lake	21	2966	lake
032713	09:55	7	16lake	22	1761	9
032713	09:55	7	bees	23	3013	bees
032713	09:55	7	21bees	24	758	4
032713	09:55	7	nip	25	2794	nip
032713	09:55	7	22nip	26	700	3
032713	09:55	7	nop	27	2418	nop
032713	09:55	7	10nop	28	747	2
032713	09:55	7	blue	29	2479	blue
032713	09:55	7	18blue	30	781	9
032713	09:55	7	cold	31	2225	cold
032713	09:55	7	19cold	32	1137	5
032713	09:55	7	lice	33	2982	lice
032713	09:55	7	13lice	34	1064	2
032713	09:55	7	dax	35	2856	dax
032713	09:55	7	8dax	36	2271	5
032713	09:55	7	plin	37	4480	plin
032713	09:55	7	10plin	38	3869	2
032713	09:55	7	lump	39	2567	lump
032713	09:55	7	23lump	40	738	4
032713	09:55	7	win	41	2423	win
032713	09:55	7	18win	42	816	9
032713	09:55	7	jabe	43	2593	jabe
032713	09:55	7	2jabe	44	987	4
032713	09:55	7	yofe	45	2326	yofe
032713	09:55	7	1yofe	46	1130	1
032713	09:55	7	soob	47	2271	soob
032713	09:55	7	7soob	48	598	1
032713	09:55	7	slap	49	2160	slap
032713	09:55	7	16slap	50	5726	5
032713	09:55	7	nobe	51	2474	nobe
032713	09:55	7	1nobe	52	688	2
032713	09:55	7	frog	53	2231	frog
032713	09:55	7	15frog	54	4751	7
032713	09:55	7	more	55	2293	more
032713	09:55	7	12more	56	1706	9
032713	09:55	7	hide	57	2417	hide
032713	09:55	7	13hide	58	1130	5
032713	09:55	7	peka	59	2447	peka
032713	09:55	7	4peka	60	878	2
032713	09:55	7	scar	61	2477	scar
032713	09:55	7	20scar	62	1699	5
032713	09:55	7	cow	63	2018	cow
032713	09:55	7	16cow	64	474	8
032713	09:55	7	pems	65	1994	pems
032713	09:55	7	4pems	66	2235	1
032713	09:55	7	yeet	67	2077	yeet
032713	09:55	7	3yeet	68	939	2
032713	09:55	7	sad	69	2256	sad
032713	09:55	7	20sad	70	2959	5
032713	09:55	7	wish	71	2188	wish
032713	09:55	7	17wish	72	700	9
032713	09:55	7	lik	73	2196	lik
032713	09:55	7	11lik	74	757	1
032713	09:55	7	jobe	75	2514	jobe
032713	09:55	7	1jobe	76	638	1
032713	09:55	7	voom	77	2519	voom
032713	09:55	7	7voom	78	628	1
032713	09:55	7	tage	79	2165	tage
032713	09:55	7	9tage	80	1152	1
032713	09:55	7	yate	81	2052	yate
032713	09:55	7	2yate	82	1091	2
032713	09:55	7	yoop	83	2187	yoop
032713	09:55	7	11yoop	84	588	1
032713	09:55	7	tutk	85	2864	tutk
032713	09:55	7	5tutk	86	646	1
032713	09:55	7	life	87	2071	life
032713	09:55	7	12life	88	725	9
032713	09:55	7	woem	89	2851	woem
032713	09:55	7	4woem	90	827	1
032713	09:55	7	silk	91	2772	silk
032713	09:55	7	19silk	92	662	9
032713	09:55	7	slin	93	2414	slin
032713	09:55	7	6slin	94	1454	1
032713	09:55	7	hay	95	1944	hay
032713	09:55	7	17hay	96	635	8
032713	09:55	7	tove	97	2339	tove
032713	09:55	7	3tove	98	839	1
032713	09:55	7	voke	99	2217	voke
032713	09:55	7	6voke	100	697	1
032713	09:55	7	pill	101	2432	pill
032713	09:55	7	23pill	102	607	6
032713	09:55	7	nofe	103	2042	nofe
032713	09:55	7	1nofe	104	737	1
032713	09:55	7	jufe	105	2071	jufe
032713	09:55	7	24jufe	106	2300	1
032713	09:55	7	girl	107	2556	girl
032713	09:55	7	17girl	108	767	9
032713	09:55	7	neeb	109	1955	neeb
032713	09:55	7	3neeb	110	598	1
032713	09:55	7	foof	111	1977	foof
032713	09:55	7	7foof	112	619	2
032713	09:55	7	flin	113	2172	flin
032713	09:55	7	6flin	114	983	2
032713	09:55	7	meef	115	1978	meef
032713	09:55	7	3meef	116	748	1
032713	09:55	7	lool	117	2080	lool
032713	09:55	7	11lool	118	718	1
032713	09:55	7	wasp	119	2220	wasp
032713	09:55	7	15wasp	120	612	6
032713	09:55	7	tomb	121	1822	tomb
032713	09:55	7	19tomb	122	623	5
032713	09:55	7	mafe	123	2120	mafe
032713	09:55	7	2mafe	124	717	2
032713	09:55	7	snob	125	1987	snob
032713	09:55	7	18snob	126	613	5
032713	09:55	7	voop	127	2662	voop
032713	09:55	7	7voop	128	2421	3
032713	09:55	7	pluk	129	2439	pluk
032713	09:55	7	10pluk	130	1087	1
032713	09:55	7	obey	131	2111	obey
032713	09:55	7	14obey	132	699	8
032713	09:55	7	wac	133	2161	wac
032713	09:55	7	8wac	134	1412	4
032713	09:55	7	bath	135	2333	bath
032713	09:55	7	15bath	136	1002	9
032713	09:55	7	leel	137	1876	leel
032713	09:55	7	3leel	138	690	1
032713	09:55	7	aqil	139	3201	aqil
032713	09:55	7	24aqil	140	1187	1
032713	09:55	7	nilo	141	2030	nilo
032713	09:55	7	11nilo	142	678	1
032713	09:55	7	nude	143	2004	nude
032713	09:55	7	13nude	144	653	5
032713	09:55	7	soog	145	2022	soog
032713	09:55	7	7soog	146	1751	1
032713	09:55	7	cute	147	1739	cute
032713	09:55	7	15cute	148	623	9
032713	09:55	7	eat	149	1792	eat
032713	09:55	7	20eat	150	627	9
032713	09:55	7	zabe	151	2324	zabe
032713	09:55	7	9zabe	152	1081	1
032713	09:55	7	baby	153	2232	baby
032713	09:55	7	15baby	154	800	9
032713	09:55	7	zafe	155	2466	zafe
032713	09:55	7	9zafe	156	825	1
032713	09:55	7	bowl	157	3026	bowl
032713	09:55	7	17bowl	158	667	9
032713	09:55	7	pom	159	4931	pom
032713	09:55	7	22pom	160	1376	7
032713	09:55	7	joom	161	2219	joom
032713	09:55	7	11joom	162	1188	1
032713	09:55	7	kige	163	1935	kige
032713	09:55	7	24kige	164	563	1
032713	09:55	7	kabe	165	2183	kabe
032713	09:55	7	2kabe	166	2585	2
032713	09:55	7	seat	167	2244	seat
032713	09:55	7	20seat	168	1348	8
032713	09:55	7	vape	169	2080	vape
032713	09:55	7	2vape	170	1038	2
032713	09:55	7	dlip	171	3423	dlip
032713	09:55	7	6dlip	172	697	2
032713	09:55	7	fear	173	1887	fear
032713	09:55	7	21fear	174	749	5
032713	09:55	7	song	175	1721	song
032713	09:55	7	18song	176	542	9
032713	09:55	7	lip	177	2107	lip
032713	09:55	7	22lip	178	680	8
032713	09:55	7	melb	179	2015	melb
032713	09:55	7	4melb	180	831	1
032713	09:55	7	nuad	181	2424	nuad
032713	09:55	7	24nuad	182	1065	1
032713	09:55	7	hil	183	1785	hil
032713	09:55	7	10hil	184	555	1
032713	09:55	7	jip	185	1855	jip
032713	09:55	7	22jip	186	1830	8
032713	09:55	7	anay	187	1936	anay
032713	09:55	7	5anay	188	692	1
032713	09:55	7	lust	189	1938	lust
032713	09:55	7	12lust	190	566	9
032713	09:55	7	tez	191	2058	tez
032713	09:55	7	8tez	192	1153	1
032713	09:55	7	yame	193	1758	yame
032713	09:55	7	5yame	194	585	1
032713	09:55	7	name	195	1868	name
032713	09:55	7	17name	196	730	9
032713	09:55	7	dawn	197	4591	dawn
032713	09:55	7	14dawn	198	626	9
032713	09:55	7	sun	199	1716	sun
032713	09:55	7	19sun	200	609	9
032713	09:55	7	arm	201	1667	arm
032713	09:55	7	14arm	202	1617	9
032713	09:55	7	pobe	203	2067	pobe
032713	09:55	7	1pobe	204	1698	2
032713	09:55	7	fish	205	1952	fish
032713	09:55	7	16fish	206	636	9
032713	09:55	7	lids	207	2021	lids
032713	09:55	7	12lids	208	965	9
032713	09:55	7	zest	209	2041	zest
032713	09:55	7	20zest	210	1256	1
032713	09:55	7	celm	211	1841	celm
032713	09:55	7	24celm	212	2289	1
032713	09:55	7	yip	213	1865	yip
032713	09:55	7	22yip	214	1727	4
032713	09:55	7	noon	215	1797	noon
032713	09:55	7	23noon	216	622	9
032713	09:55	7	cell	217	1679	cell
032713	09:55	7	13cell	218	549	9
032713	09:55	7	air	219	1481	air
032713	09:55	7	16air	220	431	9
032713	09:55	7	veed	221	2080	veed
032713	09:55	7	9veed	222	1214	2
032713	09:55	7	wife	223	1808	wife
032713	09:55	7	14wife	224	673	9
032713	09:55	7	waf	225	2273	waf
032713	09:55	7	8waf	226	535	1
032713	09:55	7	lim	227	1716	lim
032713	09:55	7	10lim	228	529	1
032713	09:55	7	liar	229	2222	liar
032713	09:55	7	12liar	230	711	6
032713	09:55	7	bed	231	1756	bed
032713	09:55	7	21bed	232	647	9
032713	09:55	7	star	233	2056	star
032713	09:55	7	21star	234	631	9
032713	09:55	7	clim	235	4360	clim
032713	09:55	7	6clim	236	611	2
032713	09:55	7	alfi	237	2197	alfi
032713	09:55	7	4alfi	238	630	1
032713	09:55	7	fat	239	1575	fat
032713	09:55	7	21fat	240	698	5
040813	10:59	951	speed	1	2482	53
040813	10:59	951	error	2	1476	84
040813	10:59	951	whichhand	3	14447	Right
040813	10:59	951	yane	1	8871	yane
040813	10:59	951	5yane	2	5885	9
040813	10:59	951	army	3	5113	army
040813	10:59	951	13army	4	1852	7
040813	10:59	951	beeg	5	4624	beeg
040813	10:59	951	9beeg	6	902	9
040813	10:59	951	lion	7	3375	lion
040813	10:59	951	23lion	8	1343	7
040813	10:59	951	taxe	9	4726	taxe
040813	10:59	951	8taxe	10	880	5
040813	10:59	951	pest	11	6370	pest
040813	10:59	951	14pest	12	763	6
040813	10:59	951	sour	13	4042	sour
040813	10:59	951	18sour	14	1487	8
040813	10:59	951	jame	15	3745	jame
040813	10:59	951	5jame	16	762	6
040813	10:59	951	ugly	17	2857	ugly
040813	10:59	951	19ugly	18	581	3
040813	10:59	951	mom	19	3051	mom
040813	10:59	951	23mom	20	440	8
040813	10:59	951	lake	21	3084	lake
040813	10:59	951	16lake	22	2015	8
040813	10:59	951	bees	23	3284	bees
040813	10:59	951	21bees	24	575	6
040813	10:59	951	nip	25	4830	nip
040813	10:59	951	22nip	26	3892	7
040813	10:59	951	nop	27	3302	nop
040813	10:59	951	10nop	28	1777	7
040813	10:59	951	blue	29	2871	blue
040813	10:59	951	18blue	30	539	9
040813	10:59	951	cold	31	3459	cold
040813	10:59	951	19cold	32	3359	4
040813	10:59	951	lice	33	3159	lice
040813	10:59	951	13lice	34	598	4
040813	10:59	951	dax	35	3788	dax
040813	10:59	951	8dax	36	779	5
040813	10:59	951	plin	37	3754	plin
040813	10:59	951	10plin	38	529	4
040813	10:59	951	lump	39	3538	lump
040813	10:59	951	23lump	40	859	7
040813	10:59	951	win	41	3174	win
040813	10:59	951	18win	42	518	9
040813	10:59	951	jabe	43	3271	jabe
040813	10:59	951	2jabe	44	1819	7
040813	10:59	951	yofe	45	3271	yofe
040813	10:59	951	1yofe	46	748	3
040813	10:59	951	soob	47	3035	soob
040813	10:59	951	7soob	48	3593	5
040813	10:59	951	slap	49	3246	slap
040813	10:59	951	16slap	50	652	3
040813	10:59	951	nobe	51	3087	nobe
040813	10:59	951	1nobe	52	570	6
040813	10:59	951	frog	53	5569	frog
040813	10:59	951	15frog	54	570	3
040813	10:59	951	more	55	2928	more
040813	10:59	951	12more	56	585	9
040813	10:59	951	hide	57	2927	hide
040813	10:59	951	13hide	58	1025	7
040813	10:59	951	peka	59	3261	peka
040813	10:59	951	4peka	60	529	4
040813	10:59	951	scar	61	2681	scar
040813	10:59	951	20scar	62	525	7
040813	10:59	951	cow	63	2789	cow
040813	10:59	951	16cow	64	1908	7
040813	10:59	951	pems	65	2974	pems
040813	10:59	951	4pems	66	1502	4
040813	10:59	951	yeet	67	2959	yeet
040813	10:59	951	3yeet	68	1215	5
040813	10:59	951	sad	69	2340	sad
040813	10:59	951	20sad	70	525	1
040813	10:59	951	wish	71	2446	wish
040813	10:59	951	17wish	72	1274	7
040813	10:59	951	lik	73	3293	lik
040813	10:59	951	11lik	74	440	8
040813	10:59	951	jobe	75	3252	jobe
040813	10:59	951	1jobe	76	1344	7
040813	10:59	951	voom	77	5376	voom
040813	10:59	951	7voom	78	440	7
040813	10:59	951	tage	79	2884	tage
040813	10:59	951	9tage	80	959	6
040813	10:59	951	yate	81	2518	yate
040813	10:59	951	2yate	82	592	3
040813	10:59	951	yoop	83	3526	yoop
040813	10:59	951	11yoop	84	862	7
040813	10:59	951	tutk	85	3594	tutk
040813	10:59	951	5tutk	86	545	3
040813	10:59	951	life	87	3081	life
040813	10:59	951	12life	88	476	9
040813	10:59	951	woem	89	3246	woem
040813	10:59	951	4woem	90	1715	6
040813	10:59	951	silk	91	2500	silk
040813	10:59	951	19silk	92	1166	7
040813	10:59	951	slin	93	2741	slin
040813	10:59	951	6slin	94	1094	7
040813	10:59	951	hay	95	2704	hay
040813	10:59	951	17hay	96	1698	8
040813	10:59	951	tove	97	2836	tove
040813	10:59	951	3tove	98	561	8
040813	10:59	951	voke	99	3440	voke
040813	10:59	951	6voke	100	1445	8
040813	10:59	951	pill	101	2945	pill
040813	10:59	951	23pill	102	1577	4
040813	10:59	951	nofe	103	2968	nofe
040813	10:59	951	1nofe	104	1415	7
040813	10:59	951	jufe	105	2749	jufe
040813	10:59	951	24jufe	106	773	7
040813	10:59	951	girl	107	5884	girl
040813	10:59	951	17girl	108	480	9
040813	10:59	951	neeb	109	3554	neeb
040813	10:59	951	3neeb	110	1298	8
040813	10:59	951	foof	111	3108	foof
040813	10:59	951	7foof	112	1087	7
040813	10:59	951	flin	113	2705	flin
040813	10:59	951	6flin	114	651	8
040813	10:59	951	meef	115	2646	meef
040813	10:59	951	3meef	116	1563	8
040813	10:59	951	lool	117	3106	lool
040813	10:59	951	11lool	118	445	9
040813	10:59	951	wasp	119	3376	wasp
040813	10:59	951	15wasp	120	655	1
040813	10:59	951	tomb	121	2627	tomb
040813	10:59	951	19tomb	122	464	2
040813	10:59	951	mafe	123	3403	mafe
040813	10:59	951	2mafe	124	921	8
040813	10:59	951	snob	125	2586	snob
040813	10:59	951	18snob	126	825	2
040813	10:59	951	voop	127	2982	voop
040813	10:59	951	7voop	128	725	9
040813	10:59	951	pluk	129	3166	pluk
040813	10:59	951	10pluk	130	605	3
040813	10:59	951	obey	131	2971	obey
040813	10:59	951	14obey	132	803	9
040813	10:59	951	wac	133	2576	wac
040813	10:59	951	8wac	134	455	5
040813	10:59	951	bath	135	3146	bath
040813	10:59	951	15bath	136	1363	9
040813	10:59	951	leel	137	3954	leel
040813	10:59	951	3leel	138	571	6
040813	10:59	951	aqil	139	5450	aqil
040813	10:59	951	24aqil	140	951	6
040813	10:59	951	nilo	141	3470	nilo
040813	10:59	951	11nilo	142	666	9
040813	10:59	951	nude	143	3525	nude
040813	10:59	951	13nude	144	1590	8
040813	10:59	951	soog	145	2989	soog
040813	10:59	951	7soog	146	1068	8
040813	10:59	951	cute	147	3511	cute
040813	10:59	951	15cute	148	545	9
040813	10:59	951	eat	149	2760	eat
040813	10:59	951	20eat	150	1232	9
040813	10:59	951	zabe	151	2628	zabe
040813	10:59	951	9zabe	152	2193	5
040813	10:59	951	baby	153	2975	baby
040813	10:59	951	15baby	154	470	8
040813	10:59	951	zafe	155	2984	zafe
040813	10:59	951	9zafe	156	1104	8
040813	10:59	951	bowl	157	3154	bowl
040813	10:59	951	17bowl	158	1018	9
040813	10:59	951	pom	159	5343	pom
040813	10:59	951	22pom	160	888	8
040813	10:59	951	joom	161	3506	joom
040813	10:59	951	11joom	162	701	6
040813	10:59	951	kige	163	2855	kige
040813	10:59	951	24kige	164	571	9
040813	10:59	951	kabe	165	2834	kabe
040813	10:59	951	2kabe	166	975	5
040813	10:59	951	seat	167	2398	seat
040813	10:59	951	20seat	168	532	8
040813	10:59	951	vape	169	2700	vape
040813	10:59	951	2vape	170	742	5
040813	10:59	951	dlip	171	4766	dlip
040813	10:59	951	6dlip	172	679	8
040813	10:59	951	fear	173	2305	fear
040813	10:59	951	21fear	174	635	1
040813	10:59	951	song	175	2519	song
040813	10:59	951	18song	176	497	9
040813	10:59	951	lip	177	3554	lip
040813	10:59	951	22lip	178	1851	8
040813	10:59	951	melb	179	3383	melb
040813	10:59	951	4melb	180	1046	7
040813	10:59	951	nuad	181	2914	nuad
040813	10:59	951	24nuad	182	1107	7
040813	10:59	951	hil	183	3085	hil
040813	10:59	951	10hil	184	472	4
040813	10:59	951	jip	185	3099	jip
040813	10:59	951	22jip	186	1581	5
040813	10:59	951	anay	187	4180	anay
040813	10:59	951	5anay	188	1187	6
040813	10:59	951	lust	189	2914	lust
040813	10:59	951	12lust	190	1067	6
040813	10:59	951	tez	191	3302	tez
040813	10:59	951	8tez	192	1617	4
040813	10:59	951	yame	193	3790	yame
040813	10:59	951	5yame	194	549	7
040813	10:59	951	name	195	2429	name
040813	10:59	951	17name	196	554	9
040813	10:59	951	dawn	197	2713	dawn
040813	10:59	951	14dawn	198	2107	7
040813	10:59	951	sun	199	2949	sun
040813	10:59	951	19sun	200	493	8
040813	10:59	951	arm	201	2286	arm
040813	10:59	951	14arm	202	506	8
040813	10:59	951	pobe	203	4347	pobe
040813	10:59	951	1pobe	204	964	7
040813	10:59	951	fish	205	3179	fish
040813	10:59	951	16fish	206	1146	8
040813	10:59	951	lids	207	2777	lids
040813	10:59	951	12lids	208	1257	8
040813	10:59	951	zest	209	3180	zest
040813	10:59	951	20zest	210	1027	8
040813	10:59	951	celm	211	3231	celm
040813	10:59	951	24celm	212	461	4
040813	10:59	951	yip	213	2895	yip
040813	10:59	951	22yip	214	1522	8
040813	10:59	951	noon	215	5203	noon
040813	10:59	951	23noon	216	546	9
040813	10:59	951	cell	217	3042	cell
040813	10:59	951	13cell	218	487	7
040813	10:59	951	air	219	2353	air
040813	10:59	951	16air	220	681	7
040813	10:59	951	veed	221	2595	veed
040813	10:59	951	9veed	222	1473	5
040813	10:59	951	wife	223	2372	wife
040813	10:59	951	14wife	224	980	8
040813	10:59	951	waf	225	2914	waf
040813	10:59	951	8waf	226	2484	6
040813	10:59	951	lim	227	2855	lim
040813	10:59	951	10lim	228	1699	5
040813	10:59	951	liar	229	2637	liar
040813	10:59	951	12liar	230	474	2
040813	10:59	951	bed	231	2533	bed
040813	10:59	951	21bed	232	718	9
040813	10:59	951	star	233	2086	star
040813	10:59	951	21star	234	1873	7
040813	10:59	951	clim	235	4092	clim
040813	10:59	951	6clim	236	927	6
040813	10:59	951	alfi	237	3687	alfi
040813	10:59	951	4alfi	238	1107	7
040813	10:59	951	fat	239	2460	fat
040813	10:59	951	21fat	240	656	5
041013	10:27	984	speed	1	2567	43
041013	10:27	984	error	2	1431	95
041013	10:27	984	whichhand	3	9200	right
041013	10:27	984	yane	1	4773	yane
041013	10:27	984	5yane	2	7938	5
041013	10:27	984	army	3	3480	army
041013	10:27	984	13army	4	1736	4
041013	10:27	984	beeg	5	4956	beeg
041013	10:27	984	9beeg	6	4585	4
041013	10:27	984	lion	7	4860	lion
041013	10:27	984	23lion	8	1549	6
041013	10:27	984	taxe	9	4080	taxe
041013	10:27	984	8taxe	10	3976	5
041013	10:27	984	pest	11	3955	pest
041013	10:27	984	14pest	12	1985	2
041013	10:27	984	sour	13	2843	sour
041013	10:27	984	18sour	14	1476	3
041013	10:27	984	jame	15	3146	jame
041013	10:27	984	5jame	16	2559	6
041013	10:27	984	ugly	17	4498	ugly
041013	10:27	984	19ugly	18	1625	2
041013	10:27	984	mom	19	2994	mom
041013	10:27	984	23mom	20	3365	8
041013	10:27	984	lake	21	3824	lake
041013	10:27	984	16lake	22	1123	7
041013	10:27	984	bees	23	3015	bees
041013	10:27	984	21bees	24	1633	4
041013	10:27	984	nip	25	2353	nip
041013	10:27	984	22nip	26	750	2
041013	10:27	984	nop	27	2225	nop
041013	10:27	984	10nop	28	795	2
041013	10:27	984	blue	29	2692	blue
041013	10:27	984	18blue	30	1115	6
041013	10:27	984	cold	31	2823	cold
041013	10:27	984	19cold	32	914	4
041013	10:27	984	lice	33	4302	lice
041013	10:27	984	13lice	34	2117	2
041013	10:27	984	dax	35	3170	dax
041013	10:27	984	8dax	36	710	5
041013	10:27	984	plin	37	5467	plin
041013	10:27	984	10plin	38	1836	3
041013	10:27	984	lump	39	2580	lump
041013	10:27	984	23lump	40	847	3
041013	10:27	984	win	41	2118	win
041013	10:27	984	18win	42	732	7
041013	10:27	984	jabe	43	2808	jabe
041013	10:27	984	2jabe	44	707	4
041013	10:27	984	yofe	45	3600	yofe
041013	10:27	984	1yofe	46	3875	5
041013	10:27	984	soob	47	3282	soob
041013	10:27	984	7soob	48	1914	4
041013	10:27	984	slap	49	2782	slap
041013	10:27	984	16slap	50	706	5
041013	10:27	984	nobe	51	2623	nobe
041013	10:27	984	1nobe	52	1689	4
041013	10:27	984	frog	53	3511	frog
041013	10:27	984	15frog	54	710	6
041013	10:27	984	more	55	2674	more
041013	10:27	984	12more	56	706	5
041013	10:27	984	hide	57	2655	hide
041013	10:27	984	13hide	58	3808	6
041013	10:27	984	peka	59	3170	peka
041013	10:27	984	4peka	60	2182	6
041013	10:27	984	scar	61	2161	scar
041013	10:27	984	20scar	62	596	3
041013	10:27	984	cow	63	1949	cow
041013	10:27	984	16cow	64	826	5
041013	10:27	984	pems	65	2194	pems
041013	10:27	984	4pems	66	573	5
041013	10:27	984	yeet	67	2335	yeet
041013	10:27	984	3yeet	68	1325	3
041013	10:27	984	sad	69	1761	sad
041013	10:27	984	20sad	70	909	2
041013	10:27	984	wish	71	3130	wish
041013	10:27	984	17wish	72	2167	6
041013	10:27	984	lik	73	2450	lik
041013	10:27	984	11lik	74	731	4
041013	10:27	984	jobe	75	4479	jobe
041013	10:27	984	1jobe	76	919	4
041013	10:27	984	voom	77	2419	voom
041013	10:27	984	7voom	78	1133	7
041013	10:27	984	tage	79	6017	tage
041013	10:27	984	9tage	80	2532	5
041013	10:27	984	yate	81	2545	yate
041013	10:27	984	2yate	82	2269	4
041013	10:27	984	yoop	83	2948	yoop
041013	10:27	984	11yoop	84	1993	3
041013	10:27	984	tutk	85	3683	tutk
041013	10:27	984	5tutk	86	1563	3
041013	10:27	984	life	87	3125	life
041013	10:27	984	12life	88	1148	7
041013	10:27	984	woem	89	4702	woem
041013	10:27	984	4woem	90	886	5
041013	10:27	984	silk	91	2620	silk
041013	10:27	984	19silk	92	782	6
041013	10:27	984	slin	93	3632	slin
041013	10:27	984	6slin	94	2977	4
041013	10:27	984	hay	95	2556	hay
041013	10:27	984	17hay	96	1137	6
041013	10:27	984	tove	97	2452	tove
041013	10:27	984	3tove	98	4629	5
041013	10:27	984	voke	99	2646	voke
041013	10:27	984	6voke	100	2583	4
041013	10:27	984	pill	101	2113	pill
041013	10:27	984	23pill	102	2567	4
041013	10:27	984	nofe	103	2410	nofe
041013	10:27	984	1nofe	104	4564	3
041013	10:27	984	jufe	105	2424	jufe
041013	10:27	984	24jufe	106	4634	4
041013	10:27	984	girl	107	2595	girl
041013	10:27	984	17girl	108	1605	7
041013	10:27	984	neeb	109	2495	neeb
041013	10:27	984	3neeb	110	757	2
041013	10:27	984	foof	111	2752	foof
041013	10:27	984	7foof	112	749	3
041013	10:27	984	flin	113	5096	flin
041013	10:27	984	6flin	114	1216	6
041013	10:27	984	meef	115	4080	meef
041013	10:27	984	3meef	116	1264	3
041013	10:27	984	lool	117	3703	lool
041013	10:27	984	11lool	118	686	2
041013	10:27	984	wasp	119	2508	wasp
041013	10:27	984	15wasp	120	931	3
041013	10:27	984	tomb	121	2758	tomb
041013	10:27	984	19tomb	122	1851	3
041013	10:27	984	mafe	123	2986	mafe
041013	10:27	984	2mafe	124	1582	4
041013	10:27	984	snob	125	2448	snob
041013	10:27	984	18snob	126	665	3
041013	10:27	984	voop	127	2071	voop
041013	10:27	984	7voop	128	1535	5
041013	10:27	984	pluk	129	3115	pluk
041013	10:27	984	10pluk	130	841	5
041013	10:27	984	obey	131	3689	obey
041013	10:27	984	14obey	132	2097	4
041013	10:27	984	wac	133	2790	wac
041013	10:27	984	8wac	134	3058	5
041013	10:27	984	bath	135	5769	bath
041013	10:27	984	15bath	136	1638	6
041013	10:27	984	leel	137	2327	leel
041013	10:27	984	3leel	138	892	5
041013	10:27	984	aqil	139	6190	aqil
041013	10:27	984	24aqil	140	4030	5
041013	10:27	984	nilo	141	2703	nilo
041013	10:27	984	11nilo	142	1782	6
041013	10:27	984	nude	143	2624	nude
041013	10:27	984	13nude	144	730	4
041013	10:27	984	soog	145	2430	soog
041013	10:27	984	7soog	146	6719	3
041013	10:27	984	cute	147	2485	cute
041013	10:27	984	15cute	148	2549	8
041013	10:27	984	eat	149	1848	eat
041013	10:27	984	20eat	150	673	7
041013	10:27	984	zabe	151	2335	zabe
041013	10:27	984	9zabe	152	2269	6
041013	10:27	984	baby	153	2724	baby
041013	10:27	984	15baby	154	906	4
041013	10:27	984	zafe	155	3111	zafe
041013	10:27	984	9zafe	156	709	5
041013	10:27	984	bowl	157	2810	bowl
041013	10:27	984	17bowl	158	1940	4
041013	10:27	984	pom	159	3904	pom
041013	10:27	984	22pom	160	3223	5
041013	10:27	984	joom	161	2305	joom
041013	10:27	984	11joom	162	1831	5
041013	10:27	984	kige	163	2911	kige
041013	10:27	984	24kige	164	4086	4
041013	10:27	984	kabe	165	2972	kabe
041013	10:27	984	2kabe	166	3385	5
041013	10:27	984	seat	167	2555	seat
041013	10:27	984	20seat	168	504	5
041013	10:27	984	vape	169	2429	vape
041013	10:27	984	2vape	170	1358	6
041013	10:27	984	dlip	171	4337	dlip
041013	10:27	984	6dlip	172	3751	3
041013	10:27	984	fear	173	2964	fear
041013	10:27	984	21fear	174	608	5
041013	10:27	984	song	175	2673	song
041013	10:27	984	18song	176	2441	7
041013	10:27	984	lip	177	2457	lip
041013	10:27	984	22lip	178	994	8
041013	10:27	984	melb	179	2483	melb
041013	10:27	984	4melb	180	1402	6
041013	10:27	984	nuad	181	3163	nuad
041013	10:27	984	24nuad	182	1024	4
041013	10:27	984	hil	183	4632	hil
041013	10:27	984	10hil	184	946	6
041013	10:27	984	jip	185	2517	jip
041013	10:27	984	22jip	186	1212	3
041013	10:27	984	anay	187	2716	anay
041013	10:27	984	5anay	188	1842	4
041013	10:27	984	lust	189	2674	lust
041013	10:27	984	12lust	190	1706	6
041013	10:27	984	tez	191	2447	tez
041013	10:27	984	8tez	192	1560	5
041013	10:27	984	yame	193	3571	yame
041013	10:27	984	5yame	194	1287	3
041013	10:27	984	name	195	2477	name
041013	10:27	984	17name	196	629	5
041013	10:27	984	dawn	197	3196	dawn
041013	10:27	984	14dawn	198	815	7
041013	10:27	984	sun	199	2464	sun
041013	10:27	984	19sun	200	1208	7
041013	10:27	984	arm	201	1897	arm
041013	10:27	984	14arm	202	887	6
041013	10:27	984	pobe	203	3229	pobe
041013	10:27	984	1pobe	204	2295	4
041013	10:27	984	fish	205	2076	fish
041013	10:27	984	16fish	206	1492	5
041013	10:27	984	lids	207	3481	lids
041013	10:27	984	12lids	208	1521	5
041013	10:27	984	zest	209	5662	zest
041013	10:27	984	20zest	210	1231	7
041013	10:27	984	celm	211	4903	celm
041013	10:27	984	24celm	212	1430	5
041013	10:27	984	yip	213	3023	yip
041013	10:27	984	22yip	214	2361	4
041013	10:27	984	noon	215	2723	noon
041013	10:27	984	23noon	216	834	6
041013	10:27	984	cell	217	2121	cell
041013	10:27	984	13cell	218	879	6
041013	10:27	984	air	219	2029	air
041013	10:27	984	16air	220	1166	7
041013	10:27	984	veed	221	2313	veed
041013	10:27	984	9veed	222	671	4
041013	10:27	984	wife	223	2149	wife
041013	10:27	984	14wife	224	3506	6
041013	10:27	984	waf	225	2488	waf
041013	10:27	984	8waf	226	2719	4
041013	10:27	984	lim	227	2892	lim
041013	10:27	984	10lim	228	3131	4
041013	10:27	984	liar	229	2104	liar
041013	10:27	984	12liar	230	726	3
041013	10:27	984	bed	231	3354	bed
041013	10:27	984	21bed	232	823	7
041013	10:27	984	star	233	2215	star
041013	10:27	984	21star	234	777	8
041013	10:27	984	clim	235	2931	clim
041013	10:27	984	6clim	236	2864	5
041013	10:27	984	alfi	237	2160	alfi
041013	10:27	984	4alfi	238	859	6
041013	10:27	984	fat	239	2058	fat
041013	10:27	984	21fat	240	890	3
041013	10:51	958	speed	1	4109	43
041013	10:51	958	error	2	2214	97
041013	10:51	958	whichhand	3	7532	right
041013	10:51	958	yane	1	6548	yane
041013	10:51	958	5yane	2	3974	4
041013	10:51	958	army	3	4566	army
041013	10:51	958	13army	4	4198	4
041013	10:51	958	beeg	5	3621	beeg
041013	10:51	958	9beeg	6	1611	3
041013	10:51	958	lion	7	4544	lion
041013	10:51	958	23lion	8	8017	5
041013	10:51	958	taxe	9	5136	taxe
041013	10:51	958	8taxe	10	1066	3
041013	10:51	958	pest	11	4661	pest
041013	10:51	958	14pest	12	1873	3
041013	10:51	958	sour	13	3117	sour
041013	10:51	958	18sour	14	1782	5
041013	10:51	958	jame	15	2813	jame
041013	10:51	958	5jame	16	1011	5
041013	10:51	958	ugly	17	2592	ugly
041013	10:51	958	19ugly	18	1903	2
041013	10:51	958	mom	19	2352	mom
041013	10:51	958	23mom	20	1569	7
041013	10:51	958	lake	21	2824	lake
041013	10:51	958	16lake	22	909	7
041013	10:51	958	bees	23	2622	bees
041013	10:51	958	21bees	24	820	5
041013	10:51	958	nip	25	2425	nip
041013	10:51	958	22nip	26	839	4
041013	10:51	958	nop	27	2379	nop
041013	10:51	958	10nop	28	1906	5
041013	10:51	958	blue	29	2851	blue
041013	10:51	958	18blue	30	656	6
041013	10:51	958	cold	31	2555	cold
041013	10:51	958	19cold	32	691	4
041013	10:51	958	lice	33	2630	lice
041013	10:51	958	13lice	34	819	3
041013	10:51	958	dax	35	3079	dax
041013	10:51	958	8dax	36	2147	4
041013	10:51	958	plin	37	2866	plin
041013	10:51	958	10plin	38	694	5
041013	10:51	958	lump	39	3448	lump
041013	10:51	958	23lump	40	620	4
041013	10:51	958	win	41	2257	win
041013	10:51	958	18win	42	1205	7
041013	10:51	958	jabe	43	2707	jabe
041013	10:51	958	2jabe	44	2293	4
041013	10:51	958	yofe	45	2839	yofe
041013	10:51	958	1yofe	46	1284	4
041013	10:51	958	soob	47	2639	soob
041013	10:51	958	7soob	48	1308	3
041013	10:51	958	slap	49	2357	slap
041013	10:51	958	16slap	50	654	4
041013	10:51	958	nobe	51	3785	nobe
041013	10:51	958	1nobe	52	1073	5
041013	10:51	958	frog	53	2475	frog
041013	10:51	958	15frog	54	463	5
041013	10:51	958	more	55	2202	more
041013	10:51	958	12more	56	1072	6
041013	10:51	958	hide	57	2570	hide
041013	10:51	958	13hide	58	986	3
041013	10:51	958	peka	59	3913	peka
041013	10:51	958	4peka	60	1731	5
041013	10:51	958	scar	61	2746	scar
041013	10:51	958	20scar	62	740	4
041013	10:51	958	cow	63	2531	cow
041013	10:51	958	16cow	64	797	6
041013	10:51	958	pems	65	2634	pems
041013	10:51	958	4pems	66	599	5
041013	10:51	958	yeet	67	2668	yeet
041013	10:51	958	3yeet	68	712	5
041013	10:51	958	sad	69	2305	sad
041013	10:51	958	20sad	70	1411	3
041013	10:51	958	wish	71	2456	wish
041013	10:51	958	17wish	72	1836	7
041013	10:51	958	lik	73	2329	lik
041013	10:51	958	11lik	74	1466	5
041013	10:51	958	jobe	75	2877	jobe
041013	10:51	958	1jobe	76	1512	4
041013	10:51	958	voom	77	3569	voom
041013	10:51	958	7voom	78	673	6
041013	10:51	958	tage	79	2484	tage
041013	10:51	958	9tage	80	1727	4
041013	10:51	958	yate	81	2431	yate
041013	10:51	958	2yate	82	604	5
041013	10:51	958	yoop	83	4330	yoop
041013	10:51	958	11yoop	84	1403	7
041013	10:51	958	tutk	85	3121	tutk
041013	10:51	958	5tutk	86	755	4
041013	10:51	958	life	87	2306	life
041013	10:51	958	12life	88	1349	8
041013	10:51	958	woem	89	2644	woem
041013	10:51	958	4woem	90	944	4
041013	10:51	958	silk	91	2592	silk
041013	10:51	958	19silk	92	951	7
041013	10:51	958	slin	93	2942	slin
041013	10:51	958	6slin	94	863	4
041013	10:51	958	hay	95	2394	hay
041013	10:51	958	17hay	96	992	6
041013	10:51	958	tove	97	2406	tove
041013	10:51	958	3tove	98	2149	4
041013	10:51	958	voke	99	2549	voke
041013	10:51	958	6voke	100	1325	4
041013	10:51	958	pill	101	3558	pill
041013	10:51	958	23pill	102	790	4
041013	10:51	958	nofe	103	2748	nofe
041013	10:51	958	1nofe	104	1877	4
041013	10:51	958	jufe	105	4583	jufe
041013	10:51	958	24jufe	106	1551	4
041013	10:51	958	girl	107	2615	girl
041013	10:51	958	17girl	108	1028	7
041013	10:51	958	neeb	109	3937	neeb
041013	10:51	958	3neeb	110	2314	5
041013	10:51	958	foof	111	2491	foof
041013	10:51	958	7foof	112	782	6
041013	10:51	958	flin	113	3060	flin
041013	10:51	958	6flin	114	1824	5
041013	10:51	958	meef	115	2782	meef
041013	10:51	958	3meef	116	1445	4
041013	10:51	958	lool	117	2736	lool
041013	10:51	958	11lool	118	673	6
041013	10:51	958	wasp	119	2332	wasp
041013	10:51	958	15wasp	120	1445	3
041013	10:51	958	tomb	121	2745	tomb
041013	10:51	958	19tomb	122	673	3
041013	10:51	958	mafe	123	2380	mafe
041013	10:51	958	2mafe	124	979	5
041013	10:51	958	snob	125	2585	snob
041013	10:51	958	18snob	126	1072	2
041013	10:51	958	voop	127	3115	voop
041013	10:51	958	7voop	128	589	6
041013	10:51	958	pluk	129	3355	pluk
041013	10:51	958	10pluk	130	1011	5
041013	10:51	958	obey	131	2616	obey
041013	10:51	958	14obey	132	1670	4
041013	10:51	958	wac	133	2729	wac
041013	10:51	958	8wac	134	1274	4
041013	10:51	958	bath	135	2461	bath
041013	10:51	958	15bath	136	841	7
041013	10:51	958	leel	137	2653	leel
041013	10:51	958	3leel	138	1561	5
041013	10:51	958	aqil	139	3056	aqil
041013	10:51	958	24aqil	140	501	5
041013	10:51	958	nilo	141	2502	nilo
041013	10:51	958	11nilo	142	745	5
041013	10:51	958	nude	143	2376	nude
041013	10:51	958	13nude	144	639	5
041013	10:51	958	soog	145	2427	soog
041013	10:51	958	7soog	146	704	4
041013	10:51	958	cute	147	2065	cute
041013	10:51	958	15cute	148	605	7
041013	10:51	958	eat	149	2178	eat
041013	10:51	958	20eat	150	657	7
041013	10:51	958	zabe	151	4021	zabe
041013	10:51	958	9zabe	152	1347	5
041013	10:51	958	baby	153	2634	baby
041013	10:51	958	15baby	154	1384	4
041013	10:51	958	zafe	155	2950	zafe
041013	10:51	958	9zafe	156	590	4
041013	10:51	958	bowl	157	2788	bowl
041013	10:51	958	17bowl	158	964	6
041013	10:51	958	pom	159	2890	pom
041013	10:51	958	22pom	160	1245	5
041013	10:51	958	joom	161	2537	joom
041013	10:51	958	11joom	162	754	7
041013	10:51	958	kige	163	2969	kige
041013	10:51	958	24kige	164	929	4
041013	10:51	958	kabe	165	2377	kabe
041013	10:51	958	2kabe	166	1168	4
041013	10:51	958	seat	167	2511	seat
041013	10:51	958	20seat	168	697	6
041013	10:51	958	vape	169	2914	vape
041013	10:51	958	2vape	170	1548	4
041013	10:51	958	dlip	171	3756	dlip
041013	10:51	958	6dlip	172	1061	5
041013	10:51	958	fear	173	2551	fear
041013	10:51	958	21fear	174	960	2
041013	10:51	958	song	175	2679	song
041013	10:51	958	18song	176	778	7
041013	10:51	958	lip	177	2480	lip
041013	10:51	958	22lip	178	747	6
041013	10:51	958	melb	179	2762	melb
041013	10:51	958	4melb	180	1394	5
041013	10:51	958	nuad	181	4079	nuad
041013	10:51	958	24nuad	182	555	4
041013	10:51	958	hil	183	3339	hil
041013	10:51	958	10hil	184	916	5
041013	10:51	958	jip	185	2509	jip
041013	10:51	958	22jip	186	951	7
041013	10:51	958	anay	187	2830	anay
041013	10:51	958	5anay	188	1164	5
041013	10:51	958	lust	189	4938	lust
041013	10:51	958	12lust	190	652	3
041013	10:51	958	tez	191	3256	tez
041013	10:51	958	8tez	192	628	4
041013	10:51	958	yame	193	2472	yame
041013	10:51	958	5yame	194	1028	4
041013	10:51	958	name	195	2424	name
041013	10:51	958	17name	196	1518	6
041013	10:51	958	dawn	197	3167	dawn
041013	10:51	958	14dawn	198	943	6
041013	10:51	958	sun	199	2383	sun
041013	10:51	958	19sun	200	638	8
041013	10:51	958	arm	201	2994	arm
041013	10:51	958	14arm	202	640	6
041013	10:51	958	pobe	203	3276	pobe
041013	10:51	958	1pobe	204	559	5
041013	10:51	958	fish	205	2654	fish
041013	10:51	958	16fish	206	1811	4
041013	10:51	958	lids	207	2472	lids
041013	10:51	958	12lids	208	2180	5
041013	10:51	958	zest	209	5002	zest
041013	10:51	958	20zest	210	1489	5
041013	10:51	958	celm	211	2875	celm
041013	10:51	958	24celm	212	783	4
041013	10:51	958	yip	213	2821	yip
041013	10:51	958	22yip	214	1155	4
041013	10:51	958	noon	215	3178	noon
041013	10:51	958	23noon	216	1273	5
041013	10:51	958	cell	217	3564	cell
041013	10:51	958	13cell	218	732	6
041013	10:51	958	air	219	2348	air
041013	10:51	958	16air	220	2277	7
041013	10:51	958	veed	221	2431	veed
041013	10:51	958	9veed	222	1469	4
041013	10:51	958	wife	223	2399	wife
041013	10:51	958	14wife	224	574	7
041013	10:51	958	waf	225	2284	waf
041013	10:51	958	8waf	226	935	5
041013	10:51	958	lim	227	2631	lim
041013	10:51	958	10lim	228	1181	5
041013	10:51	958	liar	229	2547	liar
041013	10:51	958	12liar	230	995	3
041013	10:51	958	bed	231	1944	bed
041013	10:51	958	21bed	232	1673	7
041013	10:51	958	star	233	2260	star
041013	10:51	958	21star	234	1127	7
041013	10:51	958	clim	235	2480	clim
041013	10:51	958	6clim	236	1499	4
041013	10:51	958	alfi	237	3356	alfi
041013	10:51	958	4alfi	238	1981	4
041013	10:51	958	fat	239	2139	fat
041013	10:51	958	21fat	240	788	2
041513	10:59	97	speed	1	2452	61
041513	10:59	97	error	2	1480	98
041513	10:59	97	whichhand	3	8054	Right
041513	10:59	97	yane	1	12332	yane
041513	10:59	97	5yane	2	4721	2
041513	10:59	97	army	3	4955	army
041513	10:59	97	13army	4	2252	5
041513	10:59	97	beeg	5	4600	beeg
041513	10:59	97	9beeg	6	5983	5
041513	10:59	97	lion	7	3359	lion
041513	10:59	97	23lion	8	927	9
041513	10:59	97	taxe	9	5759	taxe
041513	10:59	97	8taxe	10	5151	4
041513	10:59	97	pest	11	3320	pest
041513	10:59	97	14pest	12	1506	9
041513	10:59	97	sour	13	2636	sour
041513	10:59	97	18sour	14	1289	9
041513	10:59	97	jame	15	5027	jame
041513	10:59	97	5jame	16	1185	8
041513	10:59	97	ugly	17	3248	ugly
041513	10:59	97	19ugly	18	1180	8
041513	10:59	97	mom	19	2466	mom
041513	10:59	97	23mom	20	686	9
041513	10:59	97	lake	21	2504	lake
041513	10:59	97	16lake	22	778	8
041513	10:59	97	bees	23	2273	bees
041513	10:59	97	21bees	24	1020	6
041513	10:59	97	nip	25	2337	nip
041513	10:59	97	22nip	26	1970	9
041513	10:59	97	nop	27	2689	nop
041513	10:59	97	10nop	28	700	7
041513	10:59	97	blue	29	2982	blue
041513	10:59	97	18blue	30	957	9
041513	10:59	97	cold	31	3340	cold
041513	10:59	97	19cold	32	1069	8
041513	10:59	97	lice	33	2424	lice
041513	10:59	97	13lice	34	3294	8
041513	10:59	97	dax	35	3368	dax
041513	10:59	97	8dax	36	1432	5
041513	10:59	97	plin	37	4445	plin
041513	10:59	97	10plin	38	650	4
041513	10:59	97	lump	39	2869	lump
041513	10:59	97	23lump	40	2465	4
041513	10:59	97	win	41	2348	win
041513	10:59	97	18win	42	1172	8
041513	10:59	97	jabe	43	2963	jabe
041513	10:59	97	2jabe	44	659	7
041513	10:59	97	yofe	45	2582	yofe
041513	10:59	97	1yofe	46	733	8
041513	10:59	97	soob	47	2414	soob
041513	10:59	97	7soob	48	1003	9
041513	10:59	97	slap	49	2345	slap
041513	10:59	97	16slap	50	7167	8
041513	10:59	97	nobe	51	3970	nobe
041513	10:59	97	1nobe	52	2338	6
041513	10:59	97	frog	53	2563	frog
041513	10:59	97	15frog	54	1162	6
041513	10:59	97	more	55	2209	more
041513	10:59	97	12more	56	783	9
041513	10:59	97	hide	57	2533	hide
041513	10:59	97	13hide	58	1006	7
041513	10:59	97	peka	59	7355	peka
041513	10:59	97	4peka	60	1141	8
041513	10:59	97	scar	61	2470	scar
041513	10:59	97	20scar	62	745	6
041513	10:59	97	cow	63	2785	cow
041513	10:59	97	16cow	64	632	8
041513	10:59	97	pems	65	2764	pems
041513	10:59	97	4pems	66	708	9
041513	10:59	97	yeet	67	2597	yeet
041513	10:59	97	3yeet	68	683	6
041513	10:59	97	sad	69	2334	sad
041513	10:59	97	20sad	70	526	9
041513	10:59	97	wish	71	2894	wish
041513	10:59	97	17wish	72	2241	8
041513	10:59	97	lik	73	2173	lik
041513	10:59	97	11lik	74	621	5
041513	10:59	97	jobe	75	2410	jobe
041513	10:59	97	1jobe	76	1088	7
041513	10:59	97	voom	77	9665	voom
041513	10:59	97	7voom	78	1143	8
041513	10:59	97	tage	79	4727	tage
041513	10:59	97	9tage	80	576	6
041513	10:59	97	yate	81	5231	yate
041513	10:59	97	2yate	82	796	5
041513	10:59	97	yoop	83	4346	yoop
041513	10:59	97	11yoop	84	1675	6
041513	10:59	97	tutk	85	6142	tutk
041513	10:59	97	5tutk	86	1080	8
041513	10:59	97	life	87	2498	life
041513	10:59	97	12life	88	1676	9
041513	10:59	97	woem	89	2607	woem
041513	10:59	97	4woem	90	797	9
041513	10:59	97	silk	91	5650	silk
041513	10:59	97	19silk	92	976	7
041513	10:59	97	slin	93	2622	slin
041513	10:59	97	6slin	94	892	9
041513	10:59	97	hay	95	2230	hay
041513	10:59	97	17hay	96	1531	9
041513	10:59	97	tove	97	9315	tove
041513	10:59	97	3tove	98	3295	8
041513	10:59	97	voke	99	4833	voke
041513	10:59	97	6voke	100	1511	8
041513	10:59	97	pill	101	3504	pill
041513	10:59	97	23pill	102	835	9
041513	10:59	97	nofe	103	2143	nofe
041513	10:59	97	1nofe	104	791	8
041513	10:59	97	jufe	105	2765	jufe
041513	10:59	97	24jufe	106	693	5
041513	10:59	97	girl	107	2550	girl
041513	10:59	97	17girl	108	847	7
041513	10:59	97	neeb	109	4794	neeb
041513	10:59	97	3neeb	110	3849	6
041513	10:59	97	foof	111	2822	foof
041513	10:59	97	7foof	112	1836	6
041513	10:59	97	flin	113	2504	flin
041513	10:59	97	6flin	114	1323	5
041513	10:59	97	meef	115	2627	meef
041513	10:59	97	3meef	116	696	6
041513	10:59	97	lool	117	2738	lool
041513	10:59	97	11lool	118	1723	5
041513	10:59	97	wasp	119	2324	wasp
041513	10:59	97	15wasp	120	582	6
041513	10:59	97	tomb	121	2476	tomb
041513	10:59	97	19tomb	122	1887	7
041513	10:59	97	mafe	123	2265	mafe
041513	10:59	97	2mafe	124	2749	7
041513	10:59	97	snob	125	3357	snob
041513	10:59	97	18snob	126	3996	8
041513	10:59	97	voop	127	3180	voop
041513	10:59	97	7voop	128	2411	4
041513	10:59	97	pluk	129	2513	pluk
041513	10:59	97	10pluk	130	2058	6
041513	10:59	97	obey	131	3294	obey
041513	10:59	97	14obey	132	1625	7
041513	10:59	97	wac	133	2206	wac
041513	10:59	97	8wac	134	668	3
041513	10:59	97	bath	135	2487	bath
041513	10:59	97	15bath	136	1154	5
041513	10:59	97	leel	137	6937	leel
041513	10:59	97	3leel	138	739	5
041513	10:59	97	aqil	139	3236	aqil
041513	10:59	97	24aqil	140	521	4
041513	10:59	97	nilo	141	2490	nilo
041513	10:59	97	11nilo	142	869	5
041513	10:59	97	nude	143	2839	nude
041513	10:59	97	13nude	144	1109	6
041513	10:59	97	soog	145	3478	soog
041513	10:59	97	7soog	146	682	8
041513	10:59	97	cute	147	2539	cute
041513	10:59	97	15cute	148	1061	7
041513	10:59	97	eat	149	3655	eat
041513	10:59	97	20eat	150	1508	9
041513	10:59	97	zabe	151	2678	zabe
041513	10:59	97	9zabe	152	537	4
041513	10:59	97	baby	153	2313	baby
041513	10:59	97	15baby	154	995	8
041513	10:59	97	zafe	155	2776	zafe
041513	10:59	97	9zafe	156	943	4
041513	10:59	97	bowl	157	5175	bowl
041513	10:59	97	17bowl	158	790	7
041513	10:59	97	pom	159	2740	pom
041513	10:59	97	22pom	160	1342	8
041513	10:59	97	joom	161	3006	joom
041513	10:59	97	11joom	162	1188	7
041513	10:59	97	kige	163	15330	kige
041513	10:59	97	24kige	164	2664	5
041513	10:59	97	kabe	165	8011	kabe
041513	10:59	97	2kabe	166	1282	8
041513	10:59	97	seat	167	2685	seat
041513	10:59	97	20seat	168	2288	7
041513	10:59	97	vape	169	2259	vape
041513	10:59	97	2vape	170	391	8
041513	10:59	97	dlip	171	2837	dlip
041513	10:59	97	6dlip	172	890	8
041513	10:59	97	fear	173	2588	fear
041513	10:59	97	21fear	174	1971	6
041513	10:59	97	song	175	2290	song
041513	10:59	97	18song	176	1389	9
041513	10:59	97	lip	177	6556	lip
041513	10:59	97	22lip	178	1501	8
041513	10:59	97	melb	179	5935	melb
041513	10:59	97	4melb	180	817	8
041513	10:59	97	nuad	181	11758	nuad
041513	10:59	97	24nuad	182	1369	5
041513	10:59	97	hil	183	1960	hil
041513	10:59	97	10hil	184	447	4
041513	10:59	97	jip	185	7434	jip
041513	10:59	97	22jip	186	2873	5
041513	10:59	97	anay	187	4612	anay
041513	10:59	97	5anay	188	3515	7
041513	10:59	97	lust	189	3101	lust
041513	10:59	97	12lust	190	1199	8
041513	10:59	97	tez	191	2484	tez
041513	10:59	97	8tez	192	608	4
041513	10:59	97	yame	193	2205	yame
041513	10:59	97	5yame	194	986	7
041513	10:59	97	name	195	2145	name
041513	10:59	97	17name	196	1554	7
041513	10:59	97	dawn	197	6025	dawn
041513	10:59	97	14dawn	198	759	5
041513	10:59	97	sun	199	2838	sun
041513	10:59	97	19sun	200	524	8
041513	10:59	97	arm	201	5548	arm
041513	10:59	97	14arm	202	2805	8
041513	10:59	97	pobe	203	14963	pobe
041513	10:59	97	1pobe	204	751	7
041513	10:59	97	fish	205	4359	fish
041513	10:59	97	16fish	206	2351	7
041513	10:59	97	lids	207	2735	lids
041513	10:59	97	12lids	208	1776	7
041513	10:59	97	zest	209	4334	zest
041513	10:59	97	20zest	210	728	6
041513	10:59	97	celm	211	2632	celm
041513	10:59	97	24celm	212	2133	6
041513	10:59	97	yip	213	2638	yip
041513	10:59	97	22yip	214	379	5
041513	10:59	97	noon	215	2353	noon
041513	10:59	97	23noon	216	553	9
041513	10:59	97	cell	217	5888	cell
041513	10:59	97	13cell	218	1261	8
041513	10:59	97	air	219	3391	air
041513	10:59	97	16air	220	983	9
041513	10:59	97	veed	221	2565	veed
041513	10:59	97	9veed	222	1037	7
041513	10:59	97	wife	223	8681	wife
041513	10:59	97	14wife	224	1334	6
041513	10:59	97	waf	225	2542	waf
041513	10:59	97	8waf	226	1742	5
041513	10:59	97	lim	227	3118	lim
041513	10:59	97	10lim	228	2216	6
041513	10:59	97	liar	229	4621	liar
041513	10:59	97	12liar	230	1740	7
041513	10:59	97	bed	231	2484	bed
041513	10:59	97	21bed	232	575	6
041513	10:59	97	star	233	2158	star
041513	10:59	97	21star	234	686	9
041513	10:59	97	clim	235	2896	clim
041513	10:59	97	6clim	236	723	7
041513	10:59	97	alfi	237	2844	alfi
041513	10:59	97	4alfi	238	776	9
041513	10:59	97	fat	239	2295	fat
041513	10:59	97	21fat	240	857	9
041713	09:55	1	speed	1	9390	49 wpm
041713	09:55	1	error	2	5151	1
041713	09:55	1	whichhand	3	3912	right
041713	09:55	1	yane	1	5648	yane
041713	09:55	1	5yane	2	6229	3
041713	09:55	1	army	3	4155	amry
041713	09:55	1	13army	4	2676	5
041713	09:55	1	beeg	5	4879	beeg
041713	09:55	1	9beeg	6	2362	5
041713	09:55	1	lion	7	2970	lion
041713	09:55	1	23lion	8	889	6
041713	09:55	1	taxe	9	4476	taxe
041713	09:55	1	8taxe	10	5575	4
041713	09:55	1	pest	11	3967	pest
041713	09:55	1	14pest	12	4519	4
041713	09:55	1	sour	13	3025	sour
041713	09:55	1	18sour	14	846	4
041713	09:55	1	jame	15	2306	jame
041713	09:55	1	5jame	16	2292	5
041713	09:55	1	ugly	17	3183	ugly
041713	09:55	1	19ugly	18	2269	3
041713	09:55	1	mom	19	2257	mom
041713	09:55	1	23mom	20	2469	7
041713	09:55	1	lake	21	2609	lake
041713	09:55	1	16lake	22	3839	7
041713	09:55	1	bees	23	3252	bees
041713	09:55	1	21bees	24	640	5
041713	09:55	1	nip	25	2789	nip
041713	09:55	1	22nip	26	2987	4
041713	09:55	1	nop	27	2795	nop
041713	09:55	1	10nop	28	1736	5
041713	09:55	1	blue	29	2633	blue
041713	09:55	1	18blue	30	1702	7
041713	09:55	1	cold	31	2960	cold
041713	09:55	1	19cold	32	600	5
041713	09:55	1	lice	33	2533	lice
041713	09:55	1	13lice	34	486	4
041713	09:55	1	dax	35	3600	dax
041713	09:55	1	8dax	36	1591	6
041713	09:55	1	plin	37	3309	plin
041713	09:55	1	10plin	38	3887	3
041713	09:55	1	lump	39	3370	lump
041713	09:55	1	23lump	40	7786	2
041713	09:55	1	win	41	2363	win
041713	09:55	1	18win	42	1594	2
041713	09:55	1	jabe	43	5424	jabe
041713	09:55	1	2jabe	44	2743	3
041713	09:55	1	yofe	45	2815	yofe
041713	09:55	1	1yofe	46	764	2
041713	09:55	1	soob	47	2716	soob
041713	09:55	1	7soob	48	2941	2
041713	09:55	1	slap	49	2526	slap
041713	09:55	1	16slap	50	2343	3
041713	09:55	1	nobe	51	3407	nobe
041713	09:55	1	1nobe	52	725	3
041713	09:55	1	frog	53	2910	frog
041713	09:55	1	15frog	54	1448	5
041713	09:55	1	more	55	2828	more
041713	09:55	1	12more	56	2577	4
041713	09:55	1	hide	57	2888	hide
041713	09:55	1	13hide	58	1434	5
041713	09:55	1	peka	59	2287	peka
041713	09:55	1	4peka	60	594	7
041713	09:55	1	scar	61	2407	scar
041713	09:55	1	20scar	62	1749	5
041713	09:55	1	cow	63	2293	cow
041713	09:55	1	16cow	64	967	6
041713	09:55	1	pems	65	4030	pems
041713	09:55	1	4pems	66	2628	5
041713	09:55	1	yeet	67	2913	yeet
041713	09:55	1	3yeet	68	1913	2
041713	09:55	1	sad	69	1939	sad
041713	09:55	1	20sad	70	708	4
041713	09:55	1	wish	71	2526	wish
041713	09:55	1	17wish	72	2223	6
041713	09:55	1	lik	73	2700	lik
041713	09:55	1	11lik	74	582	5
041713	09:55	1	jobe	75	2701	jobe
041713	09:55	1	1jobe	76	3815	5
041713	09:55	1	voom	77	2909	voom
041713	09:55	1	7voom	78	2214	6
041713	09:55	1	tage	79	5827	tage
041713	09:55	1	9tage	80	2106	5
041713	09:55	1	yate	81	3620	yate
041713	09:55	1	2yate	82	2129	4
041713	09:55	1	yoop	83	2898	yoop
041713	09:55	1	11yoop	84	2868	5
041713	09:55	1	tutk	85	2672	tutk
041713	09:55	1	5tutk	86	1884	2
041713	09:55	1	life	87	5734	life
041713	09:55	1	12life	88	1336	6
041713	09:55	1	woem	89	4129	woem
041713	09:55	1	4woem	90	2874	3
041713	09:55	1	silk	91	3870	silk
041713	09:55	1	19silk	92	706	5
041713	09:55	1	slin	93	5955	slin
041713	09:55	1	6slin	94	581	2
041713	09:55	1	hay	95	4123	hay
041713	09:55	1	17hay	96	637	5
041713	09:55	1	tove	97	6937	tove
041713	09:55	1	3tove	98	2363	2
041713	09:55	1	voke	99	2674	voke
041713	09:55	1	6voke	100	646	5
041713	09:55	1	pill	101	2866	pill
041713	09:55	1	23pill	102	5358	6
041713	09:55	1	nofe	103	3671	nofe
041713	09:55	1	1nofe	104	1786	6
041713	09:55	1	jufe	105	3233	jufe
041713	09:55	1	24jufe	106	1758	5
041713	09:55	1	girl	107	2206	girl
041713	09:55	1	17girl	108	756	3
041713	09:55	1	neeb	109	2996	neeb
041713	09:55	1	3neeb	110	1962	6
041713	09:55	1	foof	111	2449	foof
041713	09:55	1	7foof	112	1598	8
041713	09:55	1	flin	113	2683	flin
041713	09:55	1	6flin	114	2142	7
041713	09:55	1	meef	115	2070	meef
041713	09:55	1	3meef	116	674	5
041713	09:55	1	lool	117	2221	lool
041713	09:55	1	11lool	118	1546	5
041713	09:55	1	wasp	119	2386	wasp
041713	09:55	1	15wasp	120	689	6
041713	09:55	1	tomb	121	2347	tomb
041713	09:55	1	19tomb	122	2963	4
041713	09:55	1	mafe	123	7593	mafe
041713	09:55	1	2mafe	124	2563	5
041713	09:55	1	snob	125	2802	snob
041713	09:55	1	18snob	126	504	5
041713	09:55	1	voop	127	2370	voop
041713	09:55	1	7voop	128	553	6
041713	09:55	1	pluk	129	2521	pluk
041713	09:55	1	10pluk	130	802	3
041713	09:55	1	obey	131	2560	obey
041713	09:55	1	14obey	132	1024	5
041713	09:55	1	wac	133	2309	wac
041713	09:55	1	8wac	134	1919	5
041713	09:55	1	bath	135	5424	bath
041713	09:55	1	15bath	136	1366	6
041713	09:55	1	leel	137	2701	leel
041713	09:55	1	3leel	138	672	3
041713	09:55	1	aqil	139	4834	aqil
041713	09:55	1	24aqil	140	2728	4
041713	09:55	1	nilo	141	2417	nilo
041713	09:55	1	11nilo	142	503	6
041713	09:55	1	nude	143	2424	nude
041713	09:55	1	13nude	144	550	5
041713	09:55	1	soog	145	2621	soog
041713	09:55	1	7soog	146	2307	5
041713	09:55	1	cute	147	2581	cute
041713	09:55	1	15cute	148	2724	6
041713	09:55	1	eat	149	2381	eat
041713	09:55	1	20eat	150	3996	5
041713	09:55	1	zabe	151	2659	zabe
041713	09:55	1	9zabe	152	1990	8
041713	09:55	1	baby	153	5701	baby
041713	09:55	1	15baby	154	3840	7
041713	09:55	1	zafe	155	2925	zafe
041713	09:55	1	9zafe	156	9110	6
041713	09:55	1	bowl	157	4090	bowl
041713	09:55	1	17bowl	158	5982	4
041713	09:55	1	pom	159	3157	pom
041713	09:55	1	22pom	160	1918	5
041713	09:55	1	joom	161	2679	joom
041713	09:55	1	11joom	162	578	5
041713	09:55	1	kige	163	4336	kige
041713	09:55	1	24kige	164	7554	8
041713	09:55	1	kabe	165	6459	kabe
041713	09:55	1	2kabe	166	1296	5
041713	09:55	1	seat	167	4034	seat
041713	09:55	1	20seat	168	936	5
041713	09:55	1	vape	169	2368	vape
041713	09:55	1	2vape	170	1975	3
041713	09:55	1	dlip	171	3494	dlip
041713	09:55	1	6dlip	172	3297	6
041713	09:55	1	fear	173	2635	fear
041713	09:55	1	21fear	174	5864	5
041713	09:55	1	song	175	3789	song
041713	09:55	1	18song	176	1364	6
041713	09:55	1	lip	177	5307	lip
041713	09:55	1	22lip	178	703	4
041713	09:55	1	melb	179	3360	melb
041713	09:55	1	4melb	180	592	3
041713	09:55	1	nuad	181	3566	nuad
041713	09:55	1	24nuad	182	2038	2
041713	09:55	1	hil	183	2370	hil
041713	09:55	1	10hil	184	1282	5
041713	09:55	1	jip	185	2484	jip
041713	09:55	1	22jip	186	1679	4
041713	09:55	1	anay	187	4250	anay
041713	09:55	1	5anay	188	799	1
041713	09:55	1	lust	189	5188	lust
041713	09:55	1	12lust	190	1300	5
041713	09:55	1	tez	191	3382	tez
041713	09:55	1	8tez	192	2565	3
041713	09:55	1	yame	193	2532	yame
041713	09:55	1	5yame	194	1173	5
041713	09:55	1	name	195	3172	name
041713	09:55	1	17name	196	1068	5
041713	09:55	1	dawn	197	3007	dawn
041713	09:55	1	14dawn	198	4021	4
041713	09:55	1	sun	199	2299	sun
041713	09:55	1	19sun	200	1182	4
041713	09:55	1	arm	201	2148	arm
041713	09:55	1	14arm	202	2379	3
041713	09:55	1	pobe	203	2963	pobe
041713	09:55	1	1pobe	204	2690	5
041713	09:55	1	fish	205	2661	fish
041713	09:55	1	16fish	206	1937	4
041713	09:55	1	lids	207	2777	lids
041713	09:55	1	12lids	208	1776	3
041713	09:55	1	zest	209	3015	zest
041713	09:55	1	20zest	210	717	8
041713	09:55	1	celm	211	2918	celm
041713	09:55	1	24celm	212	655	4
041713	09:55	1	yip	213	3603	yip
041713	09:55	1	22yip	214	1329	3
041713	09:55	1	noon	215	2186	noon
041713	09:55	1	23noon	216	551	5
041713	09:55	1	cell	217	2496	cell
041713	09:55	1	13cell	218	1738	4
041713	09:55	1	air	219	2627	air
041713	09:55	1	16air	220	2024	4
041713	09:55	1	veed	221	2885	veed
041713	09:55	1	9veed	222	2120	4
041713	09:55	1	wife	223	2353	wife
041713	09:55	1	14wife	224	626	5
041713	09:55	1	waf	225	2062	waf
041713	09:55	1	8waf	226	554	3
041713	09:55	1	lim	227	2561	lim
041713	09:55	1	10lim	228	1521	4
041713	09:55	1	liar	229	6090	liar
041713	09:55	1	12liar	230	12614	4
041713	09:55	1	bed	231	2647	bed
041713	09:55	1	21bed	232	3339	4
041713	09:55	1	star	233	2452	star
041713	09:55	1	21star	234	3056	4
041713	09:55	1	clim	235	2468	clim
041713	09:55	1	6clim	236	13600	3
041713	09:55	1	alfi	237	3810	alfi
041713	09:55	1	4alfi	238	1864	2
041713	09:55	1	fat	239	2195	fat
041713	09:55	1	21fat	240	2241	2
042213	10:11	891	speed	1	1860	31
042213	10:11	891	error	2	1293	90
042213	10:11	891	whichhand	3	29639	left
042213	10:11	891	yane	1	14644	yean
042213	10:11	891	5yane	2	7132	4
042213	10:11	891	army	3	4959	army
042213	10:11	891	13army	4	879	5
042213	10:11	891	beeg	5	4265	beeg
042213	10:11	891	9beeg	6	2126	6
042213	10:11	891	lion	7	7086	lion
042213	10:11	891	23lion	8	963	4
042213	10:11	891	taxe	9	3665	taxe
042213	10:11	891	8taxe	10	822	5
042213	10:11	891	pest	11	3650	pest
