date	time	subject	trialcode	trialnum	latency	response
041513	10:01	546	speed	1	2685	54
041513	10:01	546	error	2	1313	98
041513	10:01	546	whichhand	3	8832	Right
041513	10:01	546	yane	1	6686	yane
041513	10:01	546	5yane	2	12115	5
041513	10:01	546	army	3	3718	army
041513	10:01	546	13army	4	3346	4
041513	10:01	546	beeg	5	4226	beeg
041513	10:01	546	9beeg	6	2097	7
041513	10:01	546	lion	7	5050	lion
041513	10:01	546	23lion	8	1345	8
041513	10:01	546	taxe	9	3232	taxe
041513	10:01	546	8taxe	10	1478	3
041513	10:01	546	pest	11	3456	pest
041513	10:01	546	14pest	12	894	3
041513	10:01	546	sour	13	2415	sour
041513	10:01	546	18sour	14	1942	6
041513	10:01	546	jame	15	2670	jame
041513	10:01	546	5jame	16	484	6
041513	10:01	546	ugly	17	2060	ugly
041513	10:01	546	19ugly	18	2907	3
041513	10:01	546	mom	19	2988	mom
041513	10:01	546	23mom	20	1148	8
041513	10:01	546	lake	21	2747	lake
041513	10:01	546	16lake	22	7533	6
041513	10:01	546	bees	23	2262	bees
041513	10:01	546	21bees	24	892	4
041513	10:01	546	nip	25	1796	nip
041513	10:01	546	22nip	26	629	9
041513	10:01	546	nop	27	2343	nop
041513	10:01	546	10nop	28	610	8
041513	10:01	546	blue	29	1822	blue
041513	10:01	546	18blue	30	1565	9
041513	10:01	546	cold	31	4212	cold
041513	10:01	546	19cold	32	2620	5
041513	10:01	546	lice	33	2320	lice
041513	10:01	546	13lice	34	915	5
041513	10:01	546	dax	35	2475	dax
041513	10:01	546	8dax	36	896	2
041513	10:01	546	plin	37	1625	plin
041513	10:01	546	10plin	38	1032	6
041513	10:01	546	lump	39	1867	lump
041513	10:01	546	23lump	40	648	8
041513	10:01	546	win	41	2339	win
041513	10:01	546	18win	42	869	5
041513	10:01	546	jabe	43	1567	jabe
041513	10:01	546	2jabe	44	903	5
041513	10:01	546	yofe	45	3528	yofe
041513	10:01	546	1yofe	46	1212	2
041513	10:01	546	soob	47	2495	soob
041513	10:01	546	7soob	48	1683	7
041513	10:01	546	slap	49	2709	slap
041513	10:01	546	16slap	50	713	3
041513	10:01	546	nobe	51	3633	nobe
041513	10:01	546	1nobe	52	2448	4
041513	10:01	546	frog	53	2618	frog
041513	10:01	546	15frog	54	546	3
041513	10:01	546	more	55	2881	more
041513	10:01	546	12more	56	1237	5
041513	10:01	546	hide	57	2017	hide
041513	10:01	546	13hide	58	920	7
041513	10:01	546	peka	59	3160	peka
041513	10:01	546	4peka	60	1978	5
041513	10:01	546	scar	61	2279	scar
041513	10:01	546	20scar	62	2076	5
041513	10:01	546	cow	63	1494	cow
041513	10:01	546	16cow	64	939	8
041513	10:01	546	pems	65	2113	pems
041513	10:01	546	4pems	66	1013	4
041513	10:01	546	yeet	67	2441	yeet
041513	10:01	546	3yeet	68	727	1
041513	10:01	546	sad	69	1615	sad
041513	10:01	546	20sad	70	638	2
041513	10:01	546	wish	71	1785	wish
041513	10:01	546	17wish	72	906	3
041513	10:01	546	lik	73	2674	lik
041513	10:01	546	11lik	74	1152	4
041513	10:01	546	jobe	75	2109	jobe
041513	10:01	546	1jobe	76	442	4
041513	10:01	546	voom	77	2517	voom
041513	10:01	546	7voom	78	1049	7
041513	10:01	546	tage	79	1491	tage
041513	10:01	546	9tage	80	720	5
041513	10:01	546	yate	81	1607	yate
041513	10:01	546	2yate	82	766	5
041513	10:01	546	yoop	83	2164	yoop
041513	10:01	546	11yoop	84	357	5
041513	10:01	546	tutk	85	2852	tutk
041513	10:01	546	5tutk	86	586	2
041513	10:01	546	life	87	3447	life
041513	10:01	546	12life	88	1805	6
041513	10:01	546	woem	89	1954	woem
041513	10:01	546	4woem	90	1676	3
041513	10:01	546	silk	91	1734	silk
041513	10:01	546	19silk	92	976	6
041513	10:01	546	slin	93	1974	slin
041513	10:01	546	6slin	94	656	6
041513	10:01	546	hay	95	1769	hay
041513	10:01	546	17hay	96	1403	6
041513	10:01	546	tove	97	1848	tove
041513	10:01	546	3tove	98	829	4
041513	10:01	546	voke	99	1848	voke
041513	10:01	546	6voke	100	711	5
041513	10:01	546	pill	101	2054	pill
041513	10:01	546	23pill	102	2292	6
041513	10:01	546	nofe	103	1878	nofe
041513	10:01	546	1nofe	104	619	4
041513	10:01	546	jufe	105	1694	jufe
041513	10:01	546	24jufe	106	675	2
041513	10:01	546	girl	107	1444	girl
041513	10:01	546	17girl	108	1267	5
041513	10:01	546	neeb	109	1620	neeb
041513	10:01	546	3neeb	110	363	5
041513	10:01	546	foof	111	1529	foof
041513	10:01	546	7foof	112	636	7
041513	10:01	546	flin	113	1917	flin
041513	10:01	546	6flin	114	633	4
041513	10:01	546	meef	115	1540	meef
041513	10:01	546	3meef	116	623	4
041513	10:01	546	lool	117	1642	lool
041513	10:01	546	11lool	118	1305	3
041513	10:01	546	wasp	119	2338	wasp
041513	10:01	546	15wasp	120	732	3
041513	10:01	546	tomb	121	2667	tomb
041513	10:01	546	19tomb	122	960	6
041513	10:01	546	mafe	123	1927	mafe
041513	10:01	546	2mafe	124	794	4
041513	10:01	546	snob	125	1552	snob
041513	10:01	546	18snob	126	609	2
041513	10:01	546	voop	127	1518	voop
041513	10:01	546	7voop	128	1025	8
041513	10:01	546	pluk	129	2212	pluk
041513	10:01	546	10pluk	130	1811	4
041513	10:01	546	obey	131	3288	obey
041513	10:01	546	14obey	132	989	8
041513	10:01	546	wac	133	2538	wac
041513	10:01	546	8wac	134	989	3
041513	10:01	546	bath	135	3793	bath
041513	10:01	546	15bath	136	779	3
041513	10:01	546	leel	137	1672	leel
041513	10:01	546	3leel	138	2157	5
041513	10:01	546	aqil	139	2980	aqil
041513	10:01	546	24aqil	140	941	1
041513	10:01	546	nilo	141	1852	nilo
041513	10:01	546	11nilo	142	906	8
041513	10:01	546	nude	143	1977	nude
041513	10:01	546	13nude	144	731	9
041513	10:01	546	soog	145	1833	soog
041513	10:01	546	7soog	146	1064	5
041513	10:01	546	cute	147	1849	cute
041513	10:01	546	15cute	148	576	4
041513	10:01	546	eat	149	1774	eat
041513	10:01	546	20eat	150	2591	7
041513	10:01	546	zabe	151	2940	zabe
041513	10:01	546	9zabe	152	1135	1
041513	10:01	546	baby	153	1814	baby
041513	10:01	546	15baby	154	1637	3
041513	10:01	546	zafe	155	3000	zafe
041513	10:01	546	9zafe	156	617	1
041513	10:01	546	bowl	157	1469	bowl
041513	10:01	546	17bowl	158	794	7
041513	10:01	546	pom	159	1446	pom
041513	10:01	546	22pom	160	1052	5
041513	10:01	546	joom	161	1406	joom
041513	10:01	546	11joom	162	567	6
041513	10:01	546	kige	163	1708	kige
041513	10:01	546	24kige	164	1320	4
041513	10:01	546	kabe	165	1376	kabe
041513	10:01	546	2kabe	166	2329	3
041513	10:01	546	seat	167	1912	seat
041513	10:01	546	20seat	168	1908	4
041513	10:01	546	vape	169	2645	vape
041513	10:01	546	2vape	170	1371	4
041513	10:01	546	dlip	171	2873	dlip
041513	10:01	546	6dlip	172	2478	2
041513	10:01	546	fear	173	1583	fear
041513	10:01	546	21fear	174	1208	7
041513	10:01	546	song	175	3389	song
041513	10:01	546	18song	176	1445	6
041513	10:01	546	lip	177	2352	lip
041513	10:01	546	22lip	178	1106	5
041513	10:01	546	melb	179	3659	melb
041513	10:01	546	4melb	180	1377	5
041513	10:01	546	nuad	181	4151	nuad
041513	10:01	546	24nuad	182	1626	4
041513	10:01	546	hil	183	2277	hil
041513	10:01	546	10hil	184	2290	4
041513	10:01	546	jip	185	1572	jip
041513	10:01	546	22jip	186	965	2
041513	10:01	546	anay	187	1747	anay
041513	10:01	546	5anay	188	1381	8
041513	10:01	546	lust	189	1690	lust
041513	10:01	546	12lust	190	862	4
041513	10:01	546	tez	191	2336	tez
041513	10:01	546	8tez	192	755	2
041513	10:01	546	yame	193	1929	yame
041513	10:01	546	5yame	194	1356	4
041513	10:01	546	name	195	1498	name
041513	10:01	546	17name	196	2310	5
041513	10:01	546	dawn	197	1671	dawn
041513	10:01	546	14dawn	198	900	2
041513	10:01	546	sun	199	1964	sun
041513	10:01	546	19sun	200	726	8
041513	10:01	546	arm	201	1693	arm
041513	10:01	546	14arm	202	1362	5
041513	10:01	546	pobe	203	2167	pobe
041513	10:01	546	1pobe	204	2169	6
041513	10:01	546	fish	205	2823	fish
041513	10:01	546	16fish	206	1142	6
041513	10:01	546	lids	207	2126	lids
041513	10:01	546	12lids	208	2289	4
041513	10:01	546	zest	209	3442	zest
041513	10:01	546	20zest	210	1434	4
041513	10:01	546	celm	211	2829	celm
041513	10:01	546	24celm	212	1772	6
041513	10:01	546	yip	213	1905	yip
041513	10:01	546	22yip	214	1806	4
041513	10:01	546	noon	215	2226	noon
041513	10:01	546	23noon	216	1034	9
041513	10:01	546	cell	217	1973	cell
041513	10:01	546	13cell	218	1822	3
041513	10:01	546	air	219	2002	air
041513	10:01	546	16air	220	1210	6
041513	10:01	546	veed	221	1982	veed
041513	10:01	546	9veed	222	823	4
041513	10:01	546	wife	223	1603	wife
041513	10:01	546	14wife	224	802	5
041513	10:01	546	waf	225	2007	waf
041513	10:01	546	8waf	226	663	3
041513	10:01	546	lim	227	1312	lim
041513	10:01	546	10lim	228	915	5
041513	10:01	546	liar	229	1851	liar
041513	10:01	546	12liar	230	1673	6
041513	10:01	546	bed	231	1635	bed
041513	10:01	546	21bed	232	1705	5
041513	10:01	546	star	233	1690	star
041513	10:01	546	21star	234	1111	3
041513	10:01	546	clim	235	2471	clim
041513	10:01	546	6clim	236	1365	3
041513	10:01	546	alfi	237	2411	alfi
041513	10:01	546	4alfi	238	1202	5
041513	10:01	546	fat	239	4750	fat
041513	10:01	546	21fat	240	3145	4
050113	10:36	545	speed	1	1627	62
050113	10:36	545	error	2	1552	85
050113	10:36	545	whichhand	3	7568	right
050113	10:36	545	yane	1	5268	yane
050113	10:36	545	5yane	2	6360	1
050113	10:36	545	army	3	4593	army
050113	10:36	545	13army	4	4033	4
050113	10:36	545	beeg	5	3055	beeg
050113	10:36	545	9beeg	6	2051	1
050113	10:36	545	lion	7	2303	lion
050113	10:36	545	23lion	8	1441	8
050113	10:36	545	taxe	9	3183	taxe
050113	10:36	545	8taxe	10	1014	1
050113	10:36	545	pest	11	1995	pest
050113	10:36	545	14pest	12	1866	3
050113	10:36	545	sour	13	3574	sour
050113	10:36	545	18sour	14	1205	9
050113	10:36	545	jame	15	4260	jame
050113	10:36	545	5jame	16	1544	2
050113	10:36	545	ugly	17	5865	2
050113	10:36	545	19ugly	18	4382	2
050113	10:36	545	mom	19	1886	mom
050113	10:36	545	23mom	20	2745	8
050113	10:36	545	lake	21	2153	lake
050113	10:36	545	16lake	22	625	9
050113	10:36	545	bees	23	2183	bees
050113	10:36	545	21bees	24	1102	3
050113	10:36	545	nip	25	3408	nip
050113	10:36	545	22nip	26	2727	5
050113	10:36	545	nop	27	2337	nop
050113	10:36	545	10nop	28	650	2
050113	10:36	545	blue	29	2174	blue
050113	10:36	545	18blue	30	741	8
050113	10:36	545	cold	31	2270	cold
050113	10:36	545	19cold	32	594	9
050113	10:36	545	lice	33	3312	lice
050113	10:36	545	13lice	34	3042	1
050113	10:36	545	dax	35	2608	dax
050113	10:36	545	8dax	36	830	1
050113	10:36	545	plin	37	2459	plin
050113	10:36	545	10plin	38	608	1
050113	10:36	545	lump	39	1973	lump
050113	10:36	545	23lump	40	597	3
050113	10:36	545	win	41	1547	win
050113	10:36	545	18win	42	595	9
050113	10:36	545	jabe	43	2873	jabe
050113	10:36	545	2jabe	44	1205	2
050113	10:36	545	yofe	45	5443	yofe
050113	10:36	545	1yofe	46	5921	1
050113	10:36	545	soob	47	2052	soob
050113	10:36	545	7soob	48	600	1
050113	10:36	545	slap	49	1998	slap
050113	10:36	545	16slap	50	732	5
050113	10:36	545	nobe	51	2070	nobe
050113	10:36	545	1nobe	52	553	1
050113	10:36	545	frog	53	2329	frog
050113	10:36	545	15frog	54	826	2
050113	10:36	545	more	55	2615	more
050113	10:36	545	12more	56	2477	8
050113	10:36	545	hide	57	1553	hide
050113	10:36	545	13hide	58	625	2
050113	10:36	545	peka	59	1974	peka
050113	10:36	545	4peka	60	1382	2
050113	10:36	545	scar	61	2445	scar
050113	10:36	545	20scar	62	1609	4
050113	10:36	545	cow	63	3728	cow
050113	10:36	545	16cow	64	2761	5
050113	10:36	545	pems	65	2930	pems
050113	10:36	545	4pems	66	490	1
050113	10:36	545	yeet	67	1877	yeet
050113	10:36	545	3yeet	68	464	2
050113	10:36	545	sad	69	1899	sad
050113	10:36	545	20sad	70	2110	3
050113	10:36	545	wish	71	1384	wish
050113	10:36	545	17wish	72	679	8
050113	10:36	545	lik	73	2034	lik
050113	10:36	545	11lik	74	1959	2
050113	10:36	545	jobe	75	1543	jobe
050113	10:36	545	1jobe	76	2063	7
050113	10:36	545	voom	77	2628	voom
050113	10:36	545	7voom	78	1705	7
050113	10:36	545	tage	79	2211	tage
050113	10:36	545	9tage	80	2704	2
050113	10:36	545	yate	81	3195	yate
050113	10:36	545	2yate	82	6026	2
050113	10:36	545	yoop	83	2513	yoop
050113	10:36	545	11yoop	84	4778	2
050113	10:36	545	tutk	85	2435	tutk
050113	10:36	545	5tutk	86	840	1
050113	10:36	545	life	87	1813	life
050113	10:36	545	12life	88	946	1
050113	10:36	545	woem	89	1898	woem
050113	10:36	545	4woem	90	596	1
050113	10:36	545	silk	91	1587	silk
050113	10:36	545	19silk	92	521	5
050113	10:36	545	slin	93	3307	slin
050113	10:36	545	6slin	94	1005	2
050113	10:36	545	hay	95	1651	hay
050113	10:36	545	17hay	96	519	8
050113	10:36	545	tove	97	1577	tove
050113	10:36	545	3tove	98	1704	1
050113	10:36	545	voke	99	2402	voke
050113	10:36	545	6voke	100	729	9
050113	10:36	545	pill	101	1953	pill
050113	10:36	545	23pill	102	2514	7
050113	10:36	545	nofe	103	2628	nofe
050113	10:36	545	1nofe	104	473	1
050113	10:36	545	jufe	105	2316	jufe
050113	10:36	545	24jufe	106	7694	1
050113	10:36	545	girl	107	1770	girl
050113	10:36	545	17girl	108	882	9
050113	10:36	545	neeb	109	2068	neeb
050113	10:36	545	3neeb	110	864	1
050113	10:36	545	foof	111	2483	foof
050113	10:36	545	7foof	112	1286	1
050113	10:36	545	flin	113	2273	flin
050113	10:36	545	6flin	114	1125	1
050113	10:36	545	meef	115	2118	meef
050113	10:36	545	3meef	116	1168	1
050113	10:36	545	lool	117	2112	lool
050113	10:36	545	11lool	118	553	9
050113	10:36	545	wasp	119	2626	wasp
050113	10:36	545	15wasp	120	847	4
050113	10:36	545	tomb	121	1691	tomb
050113	10:36	545	19tomb	122	869	5
050113	10:36	545	mafe	123	2537	mafe
050113	10:36	545	2mafe	124	730	1
050113	10:36	545	snob	125	1867	snob
050113	10:36	545	18snob	126	791	1
050113	10:36	545	voop	127	1541	voop
050113	10:36	545	7voop	128	438	1
050113	10:36	545	pluk	129	2075	pluk
050113	10:36	545	10pluk	130	630	1
050113	10:36	545	obey	131	3667	obey
050113	10:36	545	14obey	132	951	5
050113	10:36	545	wac	133	5719	wac
050113	10:36	545	8wac	134	498	3
050113	10:36	545	bath	135	3035	bath
050113	10:36	545	15bath	136	665	7
050113	10:36	545	leel	137	1636	leel
050113	10:36	545	3leel	138	409	3
050113	10:36	545	aqil	139	2143	aqil
050113	10:36	545	24aqil	140	712	1
050113	10:36	545	nilo	141	1618	nilo
050113	10:36	545	11nilo	142	367	4
050113	10:36	545	nude	143	1526	nude
050113	10:36	545	13nude	144	479	9
050113	10:36	545	soog	145	1746	soog
050113	10:36	545	7soog	146	402	1
050113	10:36	545	cute	147	1744	cute
050113	10:36	545	15cute	148	337	9
050113	10:36	545	eat	149	1258	eat
050113	10:36	545	20eat	150	973	9
050113	10:36	545	zabe	151	1981	zabe
050113	10:36	545	9zabe	152	607	3
050113	10:36	545	baby	153	3954	baby
050113	10:36	545	15baby	154	538	9
050113	10:36	545	zafe	155	2619	zafe
050113	10:36	545	9zafe	156	417	3
050113	10:36	545	bowl	157	1646	bowl
050113	10:36	545	17bowl	158	3394	8
050113	10:36	545	pom	159	2153	pom
050113	10:36	545	22pom	160	2145	5
050113	10:36	545	joom	161	3618	joom
050113	10:36	545	11joom	162	672	1
050113	10:36	545	kige	163	2907	kige
050113	10:36	545	24kige	164	1494	1
050113	10:36	545	kabe	165	2809	kabe
050113	10:36	545	2kabe	166	1983	1
050113	10:36	545	seat	167	2063	seat
050113	10:36	545	20seat	168	730	3
050113	10:36	545	vape	169	2619	vape
050113	10:36	545	2vape	170	2040	8
050113	10:36	545	dlip	171	2222	dlip
050113	10:36	545	6dlip	172	468	1
050113	10:36	545	fear	173	1559	fear
050113	10:36	545	21fear	174	503	1
050113	10:36	545	song	175	1449	song
050113	10:36	545	18song	176	7229	9
050113	10:36	545	lip	177	4108	lip
050113	10:36	545	22lip	178	975	8
050113	10:36	545	melb	179	1894	melb
050113	10:36	545	4melb	180	833	1
050113	10:36	545	nuad	181	1966	nuad
050113	10:36	545	24nuad	182	517	1
050113	10:36	545	hil	183	1766	hil
050113	10:36	545	10hil	184	509	1
050113	10:36	545	jip	185	1368	jip
050113	10:36	545	22jip	186	807	1
050113	10:36	545	anay	187	1549	anay
050113	10:36	545	5anay	188	437	1
050113	10:36	545	lust	189	1529	lust
050113	10:36	545	12lust	190	850	8
050113	10:36	545	tez	191	1942	tez
050113	10:36	545	8tez	192	495	3
050113	10:36	545	yame	193	1329	yame
050113	10:36	545	5yame	194	401	1
050113	10:36	545	name	195	1216	name
050113	10:36	545	17name	196	557	8
050113	10:36	545	dawn	197	1957	dawn
050113	10:36	545	14dawn	198	397	9
050113	10:36	545	sun	199	1307	sun
050113	10:36	545	19sun	200	429	9
050113	10:36	545	arm	201	1410	arm
050113	10:36	545	14arm	202	368	5
050113	10:36	545	pobe	203	1903	pobe
050113	10:36	545	1pobe	204	1154	1
050113	10:36	545	fish	205	1154	fish
050113	10:36	545	16fish	206	513	5
050113	10:36	545	lids	207	1835	lids
050113	10:36	545	12lids	208	1375	3
050113	10:36	545	zest	209	1903	zest
050113	10:36	545	20zest	210	1609	2
050113	10:36	545	celm	211	1416	celm
050113	10:36	545	24celm	212	717	1
050113	10:36	545	yip	213	2623	yip
050113	10:36	545	22yip	214	1460	5
050113	10:36	545	noon	215	1560	noon
050113	10:36	545	23noon	216	976	9
050113	10:36	545	cell	217	1408	cell
050113	10:36	545	13cell	218	558	9
050113	10:36	545	air	219	1470	air
050113	10:36	545	16air	220	361	9
050113	10:36	545	veed	221	2185	veed
050113	10:36	545	9veed	222	544	9
050113	10:36	545	wife	223	2473	wife
050113	10:36	545	14wife	224	644	9
050113	10:36	545	waf	225	1481	waf
050113	10:36	545	8waf	226	380	1
050113	10:36	545	lim	227	1418	lim
050113	10:36	545	10lim	228	776	1
050113	10:36	545	liar	229	1303	liar
050113	10:36	545	12liar	230	337	2
050113	10:36	545	bed	231	1674	bed
050113	10:36	545	21bed	232	341	9
050113	10:36	545	star	233	1502	star
050113	10:36	545	21star	234	584	5
050113	10:36	545	clim	235	2286	clim
050113	10:36	545	6clim	236	386	1
050113	10:36	545	alfi	237	2680	alfi
050113	10:36	545	4alfi	238	915	1
050113	10:36	545	fat	239	1205	fat
050113	10:36	545	21fat	240	315	1
