date	time	subject	trialcode	trialnum	latency	response
020613	10:07	95169	speed	1	3645	47
020613	10:07	95169	error	2	3097	95
020613	10:07	95169	whichhand	3	7092	Left
020613	10:07	95169	yane	1	6532	yane
020613	10:07	95169	5yane	2	2934	5
020613	10:07	95169	army	3	3671	army
020613	10:07	95169	13army	4	3907	4
020613	10:07	95169	beeg	5	3494	beeg
020613	10:07	95169	9beeg	6	5168	2
020613	10:07	95169	lion	7	3241	lion
020613	10:07	95169	23lion	8	2198	7
020613	10:07	95169	taxe	9	4444	taxe
020613	10:07	95169	8taxe	10	465	3
020613	10:07	95169	pest	11	2884	pest
020613	10:07	95169	14pest	12	2887	4
020613	10:07	95169	sour	13	2459	sour
020613	10:07	95169	18sour	14	4063	3
020613	10:07	95169	jame	15	2907	jame
020613	10:07	95169	5jame	16	1181	7
020613	10:07	95169	ugly	17	2636	ugly
020613	10:07	95169	19ugly	18	640	1
020613	10:07	95169	mom	19	2917	mom
020613	10:07	95169	23mom	20	910	9
020613	10:07	95169	lake	21	2343	lake
020613	10:07	95169	16lake	22	768	8
020613	10:07	95169	bees	23	3407	bees
020613	10:07	95169	21bees	24	6069	5
020613	10:07	95169	nip	25	2610	nip
020613	10:07	95169	22nip	26	1784	4
020613	10:07	95169	nop	27	3030	nop
020613	10:07	95169	10nop	28	1203	3
020613	10:07	95169	blue	29	2569	blue
020613	10:07	95169	18blue	30	1225	7
020613	10:07	95169	cold	31	3406	cold
020613	10:07	95169	19cold	32	6333	5
020613	10:07	95169	lice	33	2176	lice
020613	10:07	95169	13lice	34	5527	7
020613	10:07	95169	dax	35	5353	dax
020613	10:07	95169	8dax	36	5081	2
020613	10:07	95169	plin	37	2606	plin
020613	10:07	95169	10plin	38	3883	7
020613	10:07	95169	lump	39	2702	lump
020613	10:07	95169	23lump	40	872	3
020613	10:07	95169	win	41	2500	win
020613	10:07	95169	18win	42	902	9
020613	10:07	95169	jabe	43	3591	jabe
020613	10:07	95169	2jabe	44	791	6
020613	10:07	95169	yofe	45	2989	yofe
020613	10:07	95169	1yofe	46	1012	3
020613	10:07	95169	soob	47	3217	soob
020613	10:07	95169	7soob	48	2959	5
020613	10:07	95169	slap	49	2631	slap
020613	10:07	95169	16slap	50	548	1
020613	10:07	95169	nobe	51	2667	nobe
020613	10:07	95169	1nobe	52	5103	4
020613	10:07	95169	frog	53	2434	frog
020613	10:07	95169	15frog	54	975	8
020613	10:07	95169	more	55	2542	more
020613	10:07	95169	12more	56	551	7
020613	10:07	95169	hide	57	2662	hide
020613	10:07	95169	13hide	58	1298	6
020613	10:07	95169	peka	59	2548	peka
020613	10:07	95169	4peka	60	540	6
020613	10:07	95169	scar	61	2668	scar
020613	10:07	95169	20scar	62	848	1
020613	10:07	95169	cow	63	3004	cow
020613	10:07	95169	16cow	64	594	7
020613	10:07	95169	pems	65	3200	pems
020613	10:07	95169	4pems	66	526	5
020613	10:07	95169	yeet	67	2295	yeet
020613	10:07	95169	3yeet	68	4617	4
020613	10:07	95169	sad	69	2423	sad
020613	10:07	95169	20sad	70	1309	3
020613	10:07	95169	wish	71	2423	wish
020613	10:07	95169	17wish	72	845	7
020613	10:07	95169	lik	73	3032	lik
020613	10:07	95169	11lik	74	3589	6
020613	10:07	95169	jobe	75	2469	jobe
020613	10:07	95169	1jobe	76	1304	4
020613	10:07	95169	voom	77	3178	voom
020613	10:07	95169	7voom	78	1209	3
020613	10:07	95169	tage	79	2383	tage
020613	10:07	95169	9tage	80	3038	4
020613	10:07	95169	yate	81	2107	yate
020613	10:07	95169	2yate	82	1437	5
020613	10:07	95169	yoop	83	4433	yoop
020613	10:07	95169	11yoop	84	1902	3
020613	10:07	95169	tutk	85	2666	tutk
020613	10:07	95169	5tutk	86	3357	2
020613	10:07	95169	life	87	1766	life
020613	10:07	95169	12life	88	5796	9
020613	10:07	95169	woem	89	2013	woem
020613	10:07	95169	4woem	90	2729	3
020613	10:07	95169	silk	91	2083	silk
020613	10:07	95169	19silk	92	1301	8
020613	10:07	95169	slin	93	1760	slin
020613	10:07	95169	6slin	94	2214	6
020613	10:07	95169	hay	95	1885	hay
020613	10:07	95169	17hay	96	1342	5
020613	10:07	95169	tove	97	1704	tove
020613	10:07	95169	3tove	98	561	4
020613	10:07	95169	voke	99	2233	voke
020613	10:07	95169	6voke	100	4949	4
020613	10:07	95169	pill	101	3519	pill
020613	10:07	95169	23pill	102	792	6
020613	10:07	95169	nofe	103	1839	nofe
020613	10:07	95169	1nofe	104	1459	3
020613	10:07	95169	jufe	105	1824	jufe
020613	10:07	95169	24jufe	106	732	2
020613	10:07	95169	girl	107	2157	girl
020613	10:07	95169	17girl	108	1348	8
020613	10:07	95169	neeb	109	1773	neeb
020613	10:07	95169	3neeb	110	1243	5
020613	10:07	95169	foof	111	1968	foof
020613	10:07	95169	7foof	112	1231	4
020613	10:07	95169	flin	113	1996	flin
020613	10:07	95169	6flin	114	3521	6
020613	10:07	95169	meef	115	1876	meef
020613	10:07	95169	3meef	116	974	3
020613	10:07	95169	lool	117	1886	lool
020613	10:07	95169	11lool	118	240	3
020613	10:07	95169	wasp	119	1957	wasp
020613	10:07	95169	15wasp	120	1100	1
020613	10:07	95169	tomb	121	1967	tomb
020613	10:07	95169	19tomb	122	4301	3
020613	10:07	95169	mafe	123	2097	mafe
020613	10:07	95169	2mafe	124	1930	6
020613	10:07	95169	snob	125	1860	snob
020613	10:07	95169	18snob	126	1214	2
020613	10:07	95169	voop	127	3884	voop
020613	10:07	95169	7voop	128	1014	4
020613	10:07	95169	pluk	129	3452	pluk
020613	10:07	95169	10pluk	130	1328	5
020613	10:07	95169	obey	131	1890	obey
020613	10:07	95169	14obey	132	579	4
020613	10:07	95169	wac	133	1923	wac
020613	10:07	95169	8wac	134	2587	6
020613	10:07	95169	bath	135	1675	bath
020613	10:07	95169	15bath	136	2781	7
020613	10:07	95169	leel	137	1597	leel
020613	10:07	95169	3leel	138	674	4
020613	10:07	95169	aqil	139	3414	aqil
020613	10:07	95169	24aqil	140	923	6
020613	10:07	95169	nilo	141	1805	nilo
020613	10:07	95169	11nilo	142	3458	5
020613	10:07	95169	nude	143	1775	nude
020613	10:07	95169	13nude	144	2318	6
020613	10:07	95169	soog	145	1944	soog
020613	10:07	95169	7soog	146	1055	3
020613	10:07	95169	cute	147	1612	cute
020613	10:07	95169	15cute	148	2224	8
020613	10:07	95169	eat	149	1495	eat
020613	10:07	95169	20eat	150	808	8
020613	10:07	95169	zabe	151	2247	zabe
020613	10:07	95169	9zabe	152	946	6
020613	10:07	95169	baby	153	1714	baby
020613	10:07	95169	15baby	154	763	9
020613	10:07	95169	zafe	155	2850	zafe
020613	10:07	95169	9zafe	156	630	6
020613	10:07	95169	bowl	157	2171	bowl
020613	10:07	95169	17bowl	158	7017	5
020613	10:07	95169	pom	159	2226	pom
020613	10:07	95169	22pom	160	2453	5
020613	10:07	95169	joom	161	1819	joom
020613	10:07	95169	11joom	162	447	4
020613	10:07	95169	kige	163	2116	kige
020613	10:07	95169	24kige	164	2532	6
020613	10:07	95169	kabe	165	1886	kabe
020613	10:07	95169	2kabe	166	3488	5
020613	10:07	95169	seat	167	1940	seat
020613	10:07	95169	20seat	168	924	7
020613	10:07	95169	vape	169	1822	vape
020613	10:07	95169	2vape	170	2978	2
020613	10:07	95169	dlip	171	1986	dlip
020613	10:07	95169	6dlip	172	2488	6
020613	10:07	95169	fear	173	1732	fear
020613	10:07	95169	21fear	174	1739	3
020613	10:07	95169	song	175	1581	song
020613	10:07	95169	18song	176	1915	8
020613	10:07	95169	lip	177	1485	lip
020613	10:07	95169	22lip	178	1494	5
020613	10:07	95169	melb	179	2058	melb
020613	10:07	95169	4melb	180	5389	4
020613	10:07	95169	nuad	181	2557	nuad
020613	10:07	95169	24nuad	182	1957	5
020613	10:07	95169	hil	183	1766	hil
020613	10:07	95169	10hil	184	1356	7
020613	10:07	95169	jip	185	2157	jip
020613	10:07	95169	22jip	186	1364	6
020613	10:07	95169	anay	187	2116	anay
020613	10:07	95169	5anay	188	2821	6
020613	10:07	95169	lust	189	1859	lust
020613	10:07	95169	12lust	190	4310	4
020613	10:07	95169	tez	191	2457	tez
020613	10:07	95169	8tez	192	2612	3
020613	10:07	95169	yame	193	1923	yame
020613	10:07	95169	5yame	194	1867	3
020613	10:07	95169	name	195	1824	name
020613	10:07	95169	17name	196	4412	6
020613	10:07	95169	dawn	197	1987	dawn
020613	10:07	95169	14dawn	198	497	8
020613	10:07	95169	sun	199	1539	sun
020613	10:07	95169	19sun	200	1883	7
020613	10:07	95169	arm	201	1559	arm
020613	10:07	95169	14arm	202	605	7
020613	10:07	95169	pobe	203	2492	pobe
020613	10:07	95169	1pobe	204	4029	4
020613	10:07	95169	fish	205	2404	fish
020613	10:07	95169	16fish	206	753	8
020613	10:07	95169	lids	207	1706	lids
020613	10:07	95169	12lids	208	883	7
020613	10:07	95169	zest	209	2774	zest
020613	10:07	95169	20zest	210	989	7
020613	10:07	95169	celm	211	2532	celm
020613	10:07	95169	24celm	212	1196	4
020613	10:07	95169	yip	213	5003	yip
020613	10:07	95169	22yip	214	1337	2
020613	10:07	95169	noon	215	1762	noon
020613	10:07	95169	23noon	216	1696	7
020613	10:07	95169	cell	217	1724	cell
020613	10:07	95169	13cell	218	620	8
020613	10:07	95169	air	219	1578	air
020613	10:07	95169	16air	220	735	9
020613	10:07	95169	veed	221	2465	veed
020613	10:07	95169	9veed	222	1019	3
020613	10:07	95169	wife	223	1673	wife
020613	10:07	95169	14wife	224	11668	7
020613	10:07	95169	waf	225	3986	waf
020613	10:07	95169	8waf	226	2154	5
020613	10:07	95169	lim	227	1435	lim
020613	10:07	95169	10lim	228	1430	4
020613	10:07	95169	liar	229	1684	liar
020613	10:07	95169	12liar	230	342	1
020613	10:07	95169	bed	231	1879	bed
020613	10:07	95169	21bed	232	697	9
020613	10:07	95169	star	233	1451	star
020613	10:07	95169	21star	234	1174	9
020613	10:07	95169	clim	235	2030	clim
020613	10:07	95169	6clim	236	986	4
020613	10:07	95169	alfi	237	2185	alfi
020613	10:07	95169	4alfi	238	2271	5
020613	10:07	95169	fat	239	1547	fat
020613	10:07	95169	21fat	240	674	2
040313	10:46	6546	speed	1	4452	48
040313	10:46	6546	error	2	1941	91
040313	10:46	6546	whichhand	3	7913	right
040313	10:46	6546	yane	1	4864	yane
040313	10:46	6546	5yane	2	9436	3
040313	10:46	6546	army	3	4147	army
040313	10:46	6546	13army	4	3788	4
040313	10:46	6546	beeg	5	3156	beeg
040313	10:46	6546	9beeg	6	4852	5
040313	10:46	6546	lion	7	5161	lion
040313	10:46	6546	23lion	8	4890	5
040313	10:46	6546	taxe	9	4461	taxe
040313	10:46	6546	8taxe	10	5889	7
040313	10:46	6546	pest	11	2614	pest
040313	10:46	6546	14pest	12	5979	4
040313	10:46	6546	sour	13	2403	sour
040313	10:46	6546	18sour	14	8097	5
040313	10:46	6546	jame	15	2902	jame
040313	10:46	6546	5jame	16	2456	6
040313	10:46	6546	ugly	17	2300	ugly
040313	10:46	6546	19ugly	18	1519	2
040313	10:46	6546	mom	19	2024	mom
040313	10:46	6546	23mom	20	2525	7
040313	10:46	6546	lake	21	2726	lake
040313	10:46	6546	16lake	22	8143	6
040313	10:46	6546	bees	23	2745	bees
040313	10:46	6546	21bees	24	2994	7
040313	10:46	6546	nip	25	2360	nip
040313	10:46	6546	22nip	26	1408	2
040313	10:46	6546	nop	27	2125	nop
040313	10:46	6546	10nop	28	5462	3
040313	10:46	6546	blue	29	2563	blue
040313	10:46	6546	18blue	30	755	8
040313	10:46	6546	cold	31	2682	cold
040313	10:46	6546	19cold	32	1597	4
040313	10:46	6546	lice	33	2907	lice
040313	10:46	6546	13lice	34	574	1
040313	10:46	6546	dax	35	2516	dax
040313	10:46	6546	8dax	36	4726	4
040313	10:46	6546	plin	37	3191	plin
040313	10:46	6546	10plin	38	3646	5
040313	10:46	6546	lump	39	4834	lump
040313	10:46	6546	23lump	40	2368	3
040313	10:46	6546	win	41	2088	win
040313	10:46	6546	18win	42	3571	5
040313	10:46	6546	jabe	43	2715	jabe
040313	10:46	6546	2jabe	44	5364	4
040313	10:46	6546	yofe	45	3845	yofe
040313	10:46	6546	1yofe	46	4410	4
040313	10:46	6546	soob	47	3120	soob
040313	10:46	6546	7soob	48	4426	7
040313	10:46	6546	slap	49	2375	slap
040313	10:46	6546	16slap	50	2302	3
040313	10:46	6546	nobe	51	3008	nobe
040313	10:46	6546	1nobe	52	4791	4
040313	10:46	6546	frog	53	2718	frog
040313	10:46	6546	15frog	54	1760	9
040313	10:46	6546	more	55	3399	more
040313	10:46	6546	12more	56	3942	6
040313	10:46	6546	hide	57	2623	hide
040313	10:46	6546	13hide	58	2100	4
040313	10:46	6546	peka	59	2814	peka
040313	10:46	6546	4peka	60	1500	3
040313	10:46	6546	scar	61	2414	scar
040313	10:46	6546	20scar	62	3923	3
040313	10:46	6546	cow	63	3238	cow
040313	10:46	6546	16cow	64	467	7
040313	10:46	6546	pems	65	6325	pems
040313	10:46	6546	4pems	66	1784	5
040313	10:46	6546	yeet	67	2718	yeet
040313	10:46	6546	3yeet	68	736	7
040313	10:46	6546	sad	69	1777	sad
040313	10:46	6546	20sad	70	3031	2
040313	10:46	6546	wish	71	2412	wish
040313	10:46	6546	17wish	72	7138	5
040313	10:46	6546	lik	73	3340	lik
040313	10:46	6546	11lik	74	2678	5
040313	10:46	6546	jobe	75	2656	jobe
040313	10:46	6546	1jobe	76	549	7
040313	10:46	6546	voom	77	3052	voom
040313	10:46	6546	7voom	78	568	8
040313	10:46	6546	tage	79	2416	tage
040313	10:46	6546	9tage	80	373	4
040313	10:46	6546	yate	81	2740	yate
040313	10:46	6546	2yate	82	3069	4
040313	10:46	6546	yoop	83	2873	yoop
040313	10:46	6546	11yoop	84	3077	5
040313	10:46	6546	tutk	85	3688	tutk
040313	10:46	6546	5tutk	86	4435	2
040313	10:46	6546	life	87	2297	life
040313	10:46	6546	12life	88	667	8
040313	10:46	6546	woem	89	6774	woem
040313	10:46	6546	4woem	90	486	2
040313	10:46	6546	silk	91	2544	silk
040313	10:46	6546	19silk	92	3864	7
040313	10:46	6546	slin	93	2764	slin
040313	10:46	6546	6slin	94	1268	4
040313	10:46	6546	hay	95	1967	hay
040313	10:46	6546	17hay	96	623	6
040313	10:46	6546	tove	97	3228	tove
040313	10:46	6546	3tove	98	2249	5
040313	10:46	6546	voke	99	2413	voke
040313	10:46	6546	6voke	100	2746	4
040313	10:46	6546	pill	101	3139	pill
040313	10:46	6546	23pill	102	1188	1
040313	10:46	6546	nofe	103	2274	nofe
040313	10:46	6546	1nofe	104	2886	4
040313	10:46	6546	jufe	105	2233	jufe
040313	10:46	6546	24jufe	106	2742	5
040313	10:46	6546	girl	107	2134	girl
040313	10:46	6546	17girl	108	463	4
040313	10:46	6546	neeb	109	2738	neeb
040313	10:46	6546	3neeb	110	1763	3
040313	10:46	6546	foof	111	2410	foof
040313	10:46	6546	7foof	112	1032	7
040313	10:46	6546	flin	113	2388	flin
040313	10:46	6546	6flin	114	547	4
040313	10:46	6546	meef	115	2411	meef
040313	10:46	6546	3meef	116	12216	6
040313	10:46	6546	lool	117	3361	lool
040313	10:46	6546	11lool	118	545	7
040313	10:46	6546	wasp	119	2216	wasp
040313	10:46	6546	15wasp	120	18149	2
040313	10:46	6546	tomb	121	2580	tomb
040313	10:46	6546	19tomb	122	651	4
040313	10:46	6546	mafe	123	1798	mafe
040313	10:46	6546	2mafe	124	6132	5
040313	10:46	6546	snob	125	2502	snob
040313	10:46	6546	18snob	126	705	4
040313	10:46	6546	voop	127	3202	voop
040313	10:46	6546	7voop	128	2617	7
040313	10:46	6546	pluk	129	3774	pluk
040313	10:46	6546	10pluk	130	3510	4
040313	10:46	6546	obey	131	5848	obey
040313	10:46	6546	14obey	132	2070	5
040313	10:46	6546	wac	133	2953	wac
040313	10:46	6546	8wac	134	2898	4
040313	10:46	6546	bath	135	2252	bath
040313	10:46	6546	15bath	136	728	7
040313	10:46	6546	leel	137	2208	leel
040313	10:46	6546	3leel	138	1478	4
040313	10:46	6546	aqil	139	6577	aqil
040313	10:46	6546	24aqil	140	793	3
040313	10:46	6546	nilo	141	3815	nilo
040313	10:46	6546	11nilo	142	1517	4
040313	10:46	6546	nude	143	3582	nude
040313	10:46	6546	13nude	144	2086	5
040313	10:46	6546	soog	145	3048	soog
040313	10:46	6546	7soog	146	1493	5
040313	10:46	6546	cute	147	1791	cute
040313	10:46	6546	15cute	148	2525	8
040313	10:46	6546	eat	149	1630	eat
040313	10:46	6546	20eat	150	1715	5
040313	10:46	6546	zabe	151	6084	zabe
040313	10:46	6546	9zabe	152	1760	6
040313	10:46	6546	baby	153	2248	baby
040313	10:46	6546	15baby	154	660	3
040313	10:46	6546	zafe	155	3351	zafe
040313	10:46	6546	9zafe	156	1783	6
040313	10:46	6546	bowl	157	3518	bowl
040313	10:46	6546	17bowl	158	1656	7
040313	10:46	6546	pom	159	2292	pom
040313	10:46	6546	22pom	160	742	7
040313	10:46	6546	joom	161	2118	joom
040313	10:46	6546	11joom	162	3624	5
040313	10:46	6546	kige	163	2438	kige
040313	10:46	6546	24kige	164	3786	4
040313	10:46	6546	kabe	165	2762	kabe
040313	10:46	6546	2kabe	166	625	3
040313	10:46	6546	seat	167	1735	seat
040313	10:46	6546	20seat	168	399	7
040313	10:46	6546	vape	169	2533	vape
040313	10:46	6546	2vape	170	886	6
040313	10:46	6546	dlip	171	3416	dlip
040313	10:46	6546	6dlip	172	2038	5
040313	10:46	6546	fear	173	2067	fear
040313	10:46	6546	21fear	174	1782	3
040313	10:46	6546	song	175	4861	song
040313	10:46	6546	18song	176	3097	7
040313	10:46	6546	lip	177	2060	lip
040313	10:46	6546	22lip	178	487	6
040313	10:46	6546	melb	179	3273	melb
040313	10:46	6546	4melb	180	693	5
040313	10:46	6546	nuad	181	4079	nuad
040313	10:46	6546	24nuad	182	1762	3
040313	10:46	6546	hil	183	2266	hil
040313	10:46	6546	10hil	184	3469	6
040313	10:46	6546	jip	185	2265	jip
040313	10:46	6546	22jip	186	1684	5
040313	10:46	6546	anay	187	3423	anay
040313	10:46	6546	5anay	188	3485	3
040313	10:46	6546	lust	189	2720	lust
040313	10:46	6546	12lust	190	1634	5
040313	10:46	6546	tez	191	2191	tez
040313	10:46	6546	8tez	192	813	3
040313	10:46	6546	yame	193	2738	yame
040313	10:46	6546	5yame	194	1971	4
040313	10:46	6546	name	195	1867	name
040313	10:46	6546	17name	196	734	4
040313	10:46	6546	dawn	197	2622	dawn
040313	10:46	6546	14dawn	198	364	7
040313	10:46	6546	sun	199	2363	sun
040313	10:46	6546	19sun	200	658	6
040313	10:46	6546	arm	201	1982	arm
040313	10:46	6546	14arm	202	581	3
040313	10:46	6546	pobe	203	3347	pobe
040313	10:46	6546	1pobe	204	1547	4
040313	10:46	6546	fish	205	3027	fish
040313	10:46	6546	16fish	206	1096	6
040313	10:46	6546	lids	207	1914	lids
040313	10:46	6546	12lids	208	428	3
040313	10:46	6546	zest	209	2328	zest
040313	10:46	6546	20zest	210	433	6
040313	10:46	6546	celm	211	2805	celm
040313	10:46	6546	24celm	212	2179	6
040313	10:46	6546	yip	213	3409	yip
040313	10:46	6546	22yip	214	1208	3
040313	10:46	6546	noon	215	2718	noon
040313	10:46	6546	23noon	216	3023	8
040313	10:46	6546	cell	217	3252	cell
040313	10:46	6546	13cell	218	530	2
040313	10:46	6546	air	219	2042	air
040313	10:46	6546	16air	220	455	6
040313	10:46	6546	veed	221	2202	veed
040313	10:46	6546	9veed	222	488	4
040313	10:46	6546	wife	223	3890	wife
040313	10:46	6546	14wife	224	477	5
040313	10:46	6546	waf	225	1736	waf
040313	10:46	6546	8waf	226	1841	5
040313	10:46	6546	lim	227	3037	lim
040313	10:46	6546	10lim	228	5530	6
040313	10:46	6546	liar	229	2148	liar
040313	10:46	6546	12liar	230	492	2
040313	10:46	6546	bed	231	1919	bed
040313	10:46	6546	21bed	232	488	7
040313	10:46	6546	star	233	4770	star
040313	10:46	6546	21star	234	1363	6
040313	10:46	6546	clim	235	2506	clim
040313	10:46	6546	6clim	236	10116	4
040313	10:46	6546	alfi	237	2704	alfi
040313	10:46	6546	4alfi	238	1547	8
040313	10:46	6546	fat	239	1619	fat
040313	10:46	6546	21fat	240	416	2
040813	10:02	954165	speed	1	3631	52
040813	10:02	954165	error	2	1662	92
040813	10:02	954165	whichhand	3	10408	right
040813	10:02	954165	yane	1	8014	yane
040813	10:02	954165	5yane	2	10061	9
040813	10:02	954165	army	3	2545	army
040813	10:02	954165	13army	4	5078	9
040813	10:02	954165	beeg	5	3381	beeg
040813	10:02	954165	9beeg	6	2476	9
040813	10:02	954165	lion	7	2559	lion
040813	10:02	954165	23lion	8	1951	9
040813	10:02	954165	taxe	9	3023	taxe
040813	10:02	954165	8taxe	10	1813	9
040813	10:02	954165	pest	11	2481	pest
040813	10:02	954165	14pest	12	3140	9
040813	10:02	954165	sour	13	1821	sour
040813	10:02	954165	18sour	14	2106	9
040813	10:02	954165	jame	15	3941	jame
040813	10:02	954165	5jame	16	15533	7
040813	10:02	954165	ugly	17	3883	ugly
040813	10:02	954165	19ugly	18	2823	8
040813	10:02	954165	mom	19	1549	mom
040813	10:02	954165	23mom	20	644	9
040813	10:02	954165	lake	21	2768	lake
040813	10:02	954165	16lake	22	1032	9
040813	10:02	954165	bees	23	2972	bees
040813	10:02	954165	21bees	24	868	9
040813	10:02	954165	nip	25	4895	nip
040813	10:02	954165	22nip	26	3050	7
040813	10:02	954165	nop	27	1862	nop
040813	10:02	954165	10nop	28	946	9
040813	10:02	954165	blue	29	2025	blue
040813	10:02	954165	18blue	30	502	9
040813	10:02	954165	cold	31	1752	cold
040813	10:02	954165	19cold	32	1720	9
040813	10:02	954165	lice	33	1801	lice
040813	10:02	954165	13lice	34	743	9
040813	10:02	954165	dax	35	3375	dax
040813	10:02	954165	8dax	36	583	7
040813	10:02	954165	plin	37	6093	plin
040813	10:02	954165	10plin	38	8576	5
040813	10:02	954165	lump	39	1897	lump
040813	10:02	954165	23lump	40	940	9
040813	10:02	954165	win	41	2347	win
040813	10:02	954165	18win	42	564	9
040813	10:02	954165	jabe	43	3571	jabe
040813	10:02	954165	2jabe	44	1715	5
040813	10:02	954165	yofe	45	2532	yofe
040813	10:02	954165	1yofe	46	725	8
040813	10:02	954165	soob	47	1726	soob
040813	10:02	954165	7soob	48	551	9
040813	10:02	954165	slap	49	2734	slap
040813	10:02	954165	16slap	50	647	7
040813	10:02	954165	nobe	51	2211	nobe
040813	10:02	954165	1nobe	52	2632	9
040813	10:02	954165	frog	53	1653	frog
040813	10:02	954165	15frog	54	314	9
040813	10:02	954165	more	55	1673	more
040813	10:02	954165	12more	56	478	9
040813	10:02	954165	hide	57	1791	hide
040813	10:02	954165	13hide	58	1086	8
040813	10:02	954165	peka	59	2936	peka
040813	10:02	954165	4peka	60	602	7
040813	10:02	954165	scar	61	2791	scar
040813	10:02	954165	20scar	62	1182	7
040813	10:02	954165	cow	63	1421	cow
040813	10:02	954165	16cow	64	1306	9
040813	10:02	954165	pems	65	1707	pems
040813	10:02	954165	4pems	66	542	8
040813	10:02	954165	yeet	67	1894	yeet
040813	10:02	954165	3yeet	68	336	9
040813	10:02	954165	sad	69	2120	sad
040813	10:02	954165	20sad	70	370	9
040813	10:02	954165	wish	71	4712	wish
040813	10:02	954165	17wish	72	1795	6
040813	10:02	954165	lik	73	1648	lik
040813	10:02	954165	11lik	74	469	9
040813	10:02	954165	jobe	75	1839	jobe
040813	10:02	954165	1jobe	76	308	9
040813	10:02	954165	voom	77	6381	voom
040813	10:02	954165	7voom	78	1910	7
040813	10:02	954165	tage	79	3759	tage
040813	10:02	954165	9tage	80	5215	6
040813	10:02	954165	yate	81	2998	yate
040813	10:02	954165	2yate	82	10084	8
040813	10:02	954165	yoop	83	4129	yoop
040813	10:02	954165	11yoop	84	2419	7
040813	10:02	954165	tutk	85	2873	tutk
040813	10:02	954165	5tutk	86	1821	6
040813	10:02	954165	life	87	1474	life
040813	10:02	954165	12life	88	1509	9
040813	10:02	954165	woem	89	2527	woem
040813	10:02	954165	4woem	90	1264	8
040813	10:02	954165	silk	91	2483	silk
040813	10:02	954165	19silk	92	550	8
040813	10:02	954165	slin	93	3581	slin
040813	10:02	954165	6slin	94	2741	6
040813	10:02	954165	hay	95	1814	hay
040813	10:02	954165	17hay	96	395	9
040813	10:02	954165	tove	97	2032	tove
040813	10:02	954165	3tove	98	3541	8
040813	10:02	954165	voke	99	2454	voke
040813	10:02	954165	6voke	100	827	9
040813	10:02	954165	pill	101	3247	pill
040813	10:02	954165	23pill	102	340	8
040813	10:02	954165	nofe	103	1964	nofe
040813	10:02	954165	1nofe	104	947	8
040813	10:02	954165	jufe	105	1955	jufe
040813	10:02	954165	24jufe	106	331	8
040813	10:02	954165	girl	107	1947	girl
040813	10:02	954165	17girl	108	1219	9
040813	10:02	954165	neeb	109	2208	neeb
040813	10:02	954165	3neeb	110	335	8
040813	10:02	954165	foof	111	1774	foof
040813	10:02	954165	7foof	112	510	9
040813	10:02	954165	flin	113	1967	flin
040813	10:02	954165	6flin	114	1878	9
040813	10:02	954165	meef	115	2009	meef
040813	10:02	954165	3meef	116	535	8
040813	10:02	954165	lool	117	1541	lool
040813	10:02	954165	11lool	118	367	9
040813	10:02	954165	wasp	119	2133	wasp
040813	10:02	954165	15wasp	120	1287	8
040813	10:02	954165	tomb	121	1713	tomb
040813	10:02	954165	19tomb	122	1450	9
040813	10:02	954165	mafe	123	1870	mafe
040813	10:02	954165	2mafe	124	306	8
040813	10:02	954165	snob	125	1843	snob
040813	10:02	954165	18snob	126	255	8
040813	10:02	954165	voop	127	2442	voop
040813	10:02	954165	7voop	128	2247	9
040813	10:02	954165	pluk	129	3939	pluk
040813	10:02	954165	10pluk	130	933	7
040813	10:02	954165	obey	131	2261	obey
040813	10:02	954165	14obey	132	577	8
040813	10:02	954165	wac	133	1815	wac
040813	10:02	954165	8wac	134	733	8
040813	10:02	954165	bath	135	2045	bath
040813	10:02	954165	15bath	136	265	9
040813	10:02	954165	leel	137	2211	leel
040813	10:02	954165	3leel	138	306	9
040813	10:02	954165	aqil	139	3386	aqil
040813	10:02	954165	24aqil	140	674	8
040813	10:02	954165	nilo	141	2093	nilo
040813	10:02	954165	11nilo	142	367	8
040813	10:02	954165	nude	143	1933	nude
040813	10:02	954165	13nude	144	559	9
040813	10:02	954165	soog	145	1886	soog
040813	10:02	954165	7soog	146	1873	9
040813	10:02	954165	cute	147	1708	cute
040813	10:02	954165	15cute	148	326	9
040813	10:02	954165	eat	149	1423	eat
040813	10:02	954165	20eat	150	220	9
040813	10:02	954165	zabe	151	2032	zabe
040813	10:02	954165	9zabe	152	550	9
040813	10:02	954165	baby	153	1861	baby
040813	10:02	954165	15baby	154	297	8
040813	10:02	954165	zafe	155	2690	zafe
040813	10:02	954165	9zafe	156	525	8
040813	10:02	954165	bowl	157	7957	bowl
040813	10:02	954165	17bowl	158	5751	4
040813	10:02	954165	pom	159	2032	pom
040813	10:02	954165	22pom	160	294	8
040813	10:02	954165	joom	161	1958	joom
040813	10:02	954165	11joom	162	239	9
040813	10:02	954165	kige	163	3099	kige
040813	10:02	954165	24kige	164	469	8
040813	10:02	954165	kabe	165	2504	kabe
040813	10:02	954165	2kabe	166	1987	8
040813	10:02	954165	seat	167	2401	seat
040813	10:02	954165	20seat	168	584	9
040813	10:02	954165	vape	169	5805	vape
040813	10:02	954165	2vape	170	301	8
040813	10:02	954165	dlip	171	4638	dlip
040813	10:02	954165	6dlip	172	244	8
040813	10:02	954165	fear	173	3288	fear
040813	10:02	954165	21fear	174	1067	8
040813	10:02	954165	song	175	1702	song
040813	10:02	954165	18song	176	304	9
040813	10:02	954165	lip	177	1457	lip
040813	10:02	954165	22lip	178	341	9
040813	10:02	954165	melb	179	2157	melb
040813	10:02	954165	4melb	180	910	8
040813	10:02	954165	nuad	181	4982	nuad
040813	10:02	954165	24nuad	182	622	7
040813	10:02	954165	hil	183	2571	hil
040813	10:02	954165	10hil	184	195	8
040813	10:02	954165	jip	185	1648	jip
040813	10:02	954165	22jip	186	868	8
040813	10:02	954165	anay	187	1871	anay
040813	10:02	954165	5anay	188	339	9
040813	10:02	954165	lust	189	1619	lust
040813	10:02	954165	12lust	190	208	9
040813	10:02	954165	tez	191	6589	tez
040813	10:02	954165	8tez	192	2494	6
040813	10:02	954165	yame	193	1888	yame
040813	10:02	954165	5yame	194	803	9
040813	10:02	954165	name	195	1592	name
040813	10:02	954165	17name	196	399	9
040813	10:02	954165	dawn	197	2644	dawn
040813	10:02	954165	14dawn	198	721	8
040813	10:02	954165	sun	199	1482	sun
040813	10:02	954165	19sun	200	588	9
040813	10:02	954165	arm	201	1434	arm
040813	10:02	954165	14arm	202	4639	9
040813	10:02	954165	pobe	203	1996	pobe
040813	10:02	954165	1pobe	204	347	9
040813	10:02	954165	fish	205	1978	fish
040813	10:02	954165	16fish	206	137	9
040813	10:02	954165	lids	207	1705	lids
040813	10:02	954165	12lids	208	371	9
040813	10:02	954165	zest	209	4050	zest
040813	10:02	954165	20zest	210	455	7
040813	10:02	954165	celm	211	2282	celm
040813	10:02	954165	24celm	212	661	8
040813	10:02	954165	yip	213	2488	yip
040813	10:02	954165	22yip	214	2387	8
040813	10:02	954165	noon	215	1810	noon
040813	10:02	954165	23noon	216	167	9
040813	10:02	954165	cell	217	1557	cell
040813	10:02	954165	13cell	218	310	9
040813	10:02	954165	air	219	1343	air
040813	10:02	954165	16air	220	263	9
040813	10:02	954165	veed	221	3600	veed
040813	10:02	954165	9veed	222	369	8
040813	10:02	954165	wife	223	1839	wife
040813	10:02	954165	14wife	224	500	9
040813	10:02	954165	waf	225	1885	waf
040813	10:02	954165	8waf	226	344	9
040813	10:02	954165	lim	227	3031	lim
040813	10:02	954165	10lim	228	1045	8
040813	10:02	954165	liar	229	1480	liar
040813	10:02	954165	12liar	230	283	9
040813	10:02	954165	bed	231	1509	bed
040813	10:02	954165	21bed	232	327	8
040813	10:02	954165	star	233	2679	star
040813	10:02	954165	21star	234	394	9
040813	10:02	954165	clim	235	1919	clim
040813	10:02	954165	6clim	236	353	9
040813	10:02	954165	alfi	237	2424	alfi
040813	10:02	954165	4alfi	238	2630	9
040813	10:02	954165	fat	239	1347	fat
040813	10:02	954165	21fat	240	307	9
040813	10:54	9546	speed	1	2751	46
040813	10:54	9546	error	2	1798	95
040813	10:54	9546	whichhand	3	11399	right
040813	10:54	9546	yane	1	3060	yane
040813	10:54	9546	5yane	2	30183	7
040813	10:54	9546	army	3	3952	army
040813	10:54	9546	13army	4	2992	8
040813	10:54	9546	beeg	5	3551	beeg
040813	10:54	9546	9beeg	6	6031	7
040813	10:54	9546	lion	7	3581	lion
040813	10:54	9546	23lion	8	3413	8
040813	10:54	9546	taxe	9	3571	taxe
040813	10:54	9546	8taxe	10	4315	5
040813	10:54	9546	pest	11	3149	pest
040813	10:54	9546	14pest	12	3189	7
040813	10:54	9546	sour	13	2669	sour
040813	10:54	9546	18sour	14	2192	7
040813	10:54	9546	jame	15	4094	jame
040813	10:54	9546	5jame	16	7417	6
040813	10:54	9546	ugly	17	3144	ugly
040813	10:54	9546	19ugly	18	5369	7
040813	10:54	9546	mom	19	2745	mom
040813	10:54	9546	23mom	20	1018	9
040813	10:54	9546	lake	21	2879	lake
040813	10:54	9546	16lake	22	1514	8
040813	10:54	9546	bees	23	3195	bees
040813	10:54	9546	21bees	24	2658	7
040813	10:54	9546	nip	25	6238	nip
040813	10:54	9546	22nip	26	3404	5
040813	10:54	9546	nop	27	3834	nop
040813	10:54	9546	10nop	28	2552	4
040813	10:54	9546	blue	29	7504	blue
040813	10:54	9546	18blue	30	1396	6
040813	10:54	9546	cold	31	4850	cold
040813	10:54	9546	19cold	32	7303	6
040813	10:54	9546	lice	33	5251	lice
040813	10:54	9546	13lice	34	2840	5
040813	10:54	9546	dax	35	3261	dax
040813	10:54	9546	8dax	36	3673	6
040813	10:54	9546	plin	37	5213	plin
040813	10:54	9546	10plin	38	4931	6
040813	10:54	9546	lump	39	6845	lump
040813	10:54	9546	23lump	40	3554	6
040813	10:54	9546	win	41	4323	win
040813	10:54	9546	18win	42	6478	6
040813	10:54	9546	jabe	43	4378	jabe
040813	10:54	9546	2jabe	44	23310	5
040813	10:54	9546	yofe	45	5394	yofe
040813	10:54	9546	1yofe	46	4642	5
040813	10:54	9546	soob	47	2207	soob
040813	10:54	9546	7soob	48	6093	6
040813	10:54	9546	slap	49	3008	slap
040813	10:54	9546	16slap	50	5870	6
040813	10:54	9546	nobe	51	5907	nobe
040813	10:54	9546	1nobe	52	1606	4
040813	10:54	9546	frog	53	2964	frog
040813	10:54	9546	15frog	54	4684	6
040813	10:54	9546	more	55	3511	more
040813	10:54	9546	12more	56	5537	6
040813	10:54	9546	hide	57	2452	hide
040813	10:54	9546	13hide	58	2144	6
040813	10:54	9546	peka	59	3136	peka
040813	10:54	9546	4peka	60	1009	5
040813	10:54	9546	scar	61	4191	scar
040813	10:54	9546	20scar	62	2470	4
040813	10:54	9546	cow	63	5714	cow
040813	10:54	9546	16cow	64	2796	7
040813	10:54	9546	pems	65	11338	pems
040813	10:54	9546	4pems	66	1094	5
040813	10:54	9546	yeet	67	5031	yeet
040813	10:54	9546	3yeet	68	3718	6
040813	10:54	9546	sad	69	4256	sad
040813	10:54	9546	20sad	70	973	9
040813	10:54	9546	wish	71	4780	wish
040813	10:54	9546	17wish	72	1875	7
040813	10:54	9546	lik	73	6102	lik
040813	10:54	9546	11lik	74	12882	6
040813	10:54	9546	jobe	75	3169	jobe
040813	10:54	9546	1jobe	76	3816	6
040813	10:54	9546	voom	77	3174	voom
040813	10:54	9546	7voom	78	1270	6
040813	10:54	9546	tage	79	2305	tage
040813	10:54	9546	9tage	80	3114	6
040813	10:54	9546	yate	81	8725	yate
040813	10:54	9546	2yate	82	1017	7
040813	10:54	9546	yoop	83	3597	yoop
040813	10:54	9546	11yoop	84	4564	6
040813	10:54	9546	tutk	85	3628	tutk
040813	10:54	9546	5tutk	86	2074	4
040813	10:54	9546	life	87	2557	life
040813	10:54	9546	12life	88	7973	7
040813	10:54	9546	woem	89	3734	woem
040813	10:54	9546	4woem	90	4871	5
040813	10:54	9546	silk	91	9116	silk
040813	10:54	9546	19silk	92	1080	7
040813	10:54	9546	slin	93	2330	slin
040813	10:54	9546	6slin	94	1611	7
040813	10:54	9546	hay	95	2776	hay
040813	10:54	9546	17hay	96	936	8
040813	10:54	9546	tove	97	5488	tove
040813	10:54	9546	3tove	98	500	6
040813	10:54	9546	voke	99	4477	voke
040813	10:54	9546	6voke	100	8409	6
040813	10:54	9546	pill	101	3248	pill
040813	10:54	9546	23pill	102	821	8
040813	10:54	9546	nofe	103	3002	nofe
040813	10:54	9546	1nofe	104	1489	7
040813	10:54	9546	jufe	105	2395	jufe
040813	10:54	9546	24jufe	106	3569	8
040813	10:54	9546	girl	107	2345	girl
040813	10:54	9546	17girl	108	3897	8
040813	10:54	9546	neeb	109	3188	neeb
040813	10:54	9546	3neeb	110	2011	7
040813	10:54	9546	foof	111	3273	foof
040813	10:54	9546	7foof	112	7764	6
040813	10:54	9546	flin	113	2998	flin
040813	10:54	9546	6flin	114	5348	6
040813	10:54	9546	meef	115	2613	meef
040813	10:54	9546	3meef	116	3763	7
040813	10:54	9546	lool	117	5875	lool
040813	10:54	9546	11lool	118	3071	3
040813	10:54	9546	wasp	119	4987	wasp
040813	10:54	9546	15wasp	120	4035	7
040813	10:54	9546	tomb	121	7704	tomb
040813	10:54	9546	19tomb	122	836	6
040813	10:54	9546	mafe	123	2376	mafe
040813	10:54	9546	2mafe	124	959	6
040813	10:54	9546	snob	125	2686	snob
040813	10:54	9546	18snob	126	2177	6
040813	10:54	9546	voop	127	4632	voop
040813	10:54	9546	7voop	128	1118	5
040813	10:54	9546	pluk	129	7263	pluk
040813	10:54	9546	10pluk	130	1268	4
040813	10:54	9546	obey	131	3319	obey
040813	10:54	9546	14obey	132	1041	6
040813	10:54	9546	wac	133	2990	wac
040813	10:54	9546	8wac	134	4341	4
040813	10:54	9546	bath	135	3046	bath
040813	10:54	9546	15bath	136	658	5
040813	10:54	9546	leel	137	2254	leel
040813	10:54	9546	3leel	138	3466	6
040813	10:54	9546	aqil	139	4438	aqil
040813	10:54	9546	24aqil	140	836	5
040813	10:54	9546	nilo	141	2896	nilo
040813	10:54	9546	11nilo	142	971	6
040813	10:54	9546	nude	143	4642	nude
040813	10:54	9546	13nude	144	2727	8
040813	10:54	9546	soog	145	5680	soog
040813	10:54	9546	7soog	146	3684	7
040813	10:54	9546	cute	147	3023	cute
040813	10:54	9546	15cute	148	917	6
040813	10:54	9546	eat	149	4254	eat
040813	10:54	9546	20eat	150	2003	5
040813	10:54	9546	zabe	151	4481	zabe
040813	10:54	9546	9zabe	152	2396	5
040813	10:54	9546	baby	153	4642	baby
040813	10:54	9546	15baby	154	4535	5
040813	10:54	9546	zafe	155	5161	zafe
040813	10:54	9546	9zafe	156	2890	5
040813	10:54	9546	bowl	157	3157	bowl
040813	10:54	9546	17bowl	158	11285	6
040813	10:54	9546	pom	159	2627	pom
040813	10:54	9546	22pom	160	632	7
040813	10:54	9546	joom	161	2140	joom
040813	10:54	9546	11joom	162	413	7
040813	10:54	9546	kige	163	2546	kige
040813	10:54	9546	24kige	164	674	6
040813	10:54	9546	kabe	165	2037	kabe
040813	10:54	9546	2kabe	166	2466	5
040813	10:54	9546	seat	167	2309	seat
040813	10:54	9546	20seat	168	1271	5
040813	10:54	9546	vape	169	2706	vape
040813	10:54	9546	2vape	170	965	7
040813	10:54	9546	dlip	171	3707	dlip
040813	10:54	9546	6dlip	172	662	3
040813	10:54	9546	fear	173	3521	fear
040813	10:54	9546	21fear	174	530	5
040813	10:54	9546	song	175	1931	song
040813	10:54	9546	18song	176	3052	6
040813	10:54	9546	lip	177	3728	lip
040813	10:54	9546	22lip	178	841	4
040813	10:54	9546	melb	179	3854	melb
040813	10:54	9546	4melb	180	1083	5
040813	10:54	9546	nuad	181	3157	nuad
040813	10:54	9546	24nuad	182	1526	6
040813	10:54	9546	hil	183	3110	hil
040813	10:54	9546	10hil	184	1752	7
040813	10:54	9546	jip	185	4536	jip
040813	10:54	9546	22jip	186	1498	5
040813	10:54	9546	anay	187	2732	anay
040813	10:54	9546	5anay	188	509	7
040813	10:54	9546	lust	189	2646	lust
040813	10:54	9546	12lust	190	570	7
040813	10:54	9546	tez	191	4761	tez
040813	10:54	9546	8tez	192	626	4
040813	10:54	9546	yame	193	2175	yame
040813	10:54	9546	5yame	194	950	5
040813	10:54	9546	name	195	3158	name
040813	10:54	9546	17name	196	926	7
040813	10:54	9546	dawn	197	4158	dawn
040813	10:54	9546	14dawn	198	1095	4
040813	10:54	9546	sun	199	1977	sun
040813	10:54	9546	19sun	200	1839	8
040813	10:54	9546	arm	201	4348	arm
040813	10:54	9546	14arm	202	3965	6
040813	10:54	9546	pobe	203	2381	pobe
040813	10:54	9546	1pobe	204	2220	7
040813	10:54	9546	fish	205	2321	fish
040813	10:54	9546	16fish	206	1787	7
040813	10:54	9546	lids	207	3017	lids
040813	10:54	9546	12lids	208	1695	7
040813	10:54	9546	zest	209	2673	zest
040813	10:54	9546	20zest	210	469	5
040813	10:54	9546	celm	211	2448	celm
040813	10:54	9546	24celm	212	636	6
040813	10:54	9546	yip	213	2928	yip
040813	10:54	9546	22yip	214	1985	4
040813	10:54	9546	noon	215	5504	noon
040813	10:54	9546	23noon	216	747	5
040813	10:54	9546	cell	217	1931	cell
040813	10:54	9546	13cell	218	548	7
040813	10:54	9546	air	219	3491	air
040813	10:54	9546	16air	220	4198	8
040813	10:54	9546	veed	221	3565	veed
040813	10:54	9546	9veed	222	805	6
040813	10:54	9546	wife	223	2003	wife
040813	10:54	9546	14wife	224	457	6
040813	10:54	9546	waf	225	2868	waf
040813	10:54	9546	8waf	226	1136	7
040813	10:54	9546	lim	227	2016	lim
040813	10:54	9546	10lim	228	446	8
040813	10:54	9546	liar	229	2209	liar
040813	10:54	9546	12liar	230	1287	7
040813	10:54	9546	bed	231	2769	bed
040813	10:54	9546	21bed	232	889	5
040813	10:54	9546	star	233	2939	star
040813	10:54	9546	21star	234	3388	7
040813	10:54	9546	clim	235	2172	clim
040813	10:54	9546	6clim	236	1531	8
040813	10:54	9546	alfi	237	2276	alfi
040813	10:54	9546	4alfi	238	1023	6
040813	10:54	9546	fat	239	2291	fat
040813	10:54	9546	21fat	240	870	6
041013	11:05	65	speed	1	2880	71
041013	11:05	65	error	2	1802	87
041013	11:05	65	whichhand	3	4915	right
041013	11:05	65	yane	1	3945	yane
041013	11:05	65	5yane	2	8823	7
041013	11:05	65	army	3	3834	army
041013	11:05	65	13army	4	1004	5
041013	11:05	65	beeg	5	3605	beeg
041013	11:05	65	9beeg	6	856	1
041013	11:05	65	lion	7	3076	lion
041013	11:05	65	23lion	8	1584	1
041013	11:05	65	taxe	9	3105	taxe
041013	11:05	65	8taxe	10	609	2
041013	11:05	65	pest	11	2621	pest
041013	11:05	65	14pest	12	1116	6
041013	11:05	65	sour	13	2085	sour
041013	11:05	65	18sour	14	1239	7
041013	11:05	65	jame	15	2196	jame
041013	11:05	65	5jame	16	594	9
041013	11:05	65	ugly	17	2528	ugly
041013	11:05	65	19ugly	18	952	3
041013	11:05	65	mom	19	2408	mom
041013	11:05	65	23mom	20	558	1
041013	11:05	65	lake	21	1489	lake
041013	11:05	65	16lake	22	1224	8
041013	11:05	65	bees	23	2174	bees
041013	11:05	65	21bees	24	3901	5
041013	11:05	65	nip	25	1992	nip
041013	11:05	65	22nip	26	430	1
041013	11:05	65	nop	27	2018	nop
041013	11:05	65	10nop	28	463	1
041013	11:05	65	blue	29	2011	blue
041013	11:05	65	18blue	30	504	7
041013	11:05	65	cold	31	2089	cold
041013	11:05	65	19cold	32	468	9
041013	11:05	65	lice	33	2247	lice
041013	11:05	65	13lice	34	1371	8
041013	11:05	65	dax	35	2234	dax
041013	11:05	65	8dax	36	647	1
041013	11:05	65	plin	37	2842	plin
041013	11:05	65	10plin	38	575	4
041013	11:05	65	lump	39	2998	lump
041013	11:05	65	23lump	40	668	1
041013	11:05	65	win	41	1983	win
041013	11:05	65	18win	42	638	9
041013	11:05	65	jabe	43	2738	jabe
041013	11:05	65	2jabe	44	508	8
041013	11:05	65	yofe	45	1960	yofe
041013	11:05	65	1yofe	46	500	1
041013	11:05	65	soob	47	1937	soob
041013	11:05	65	7soob	48	582	9
041013	11:05	65	slap	49	2376	slap
041013	11:05	65	16slap	50	1388	3
041013	11:05	65	nobe	51	3226	nobe
041013	11:05	65	1nobe	52	1271	2
041013	11:05	65	frog	53	1947	frog
041013	11:05	65	15frog	54	587	9
041013	11:05	65	more	55	2177	more
041013	11:05	65	12more	56	1288	9
041013	11:05	65	hide	57	2882	hide
041013	11:05	65	13hide	58	1621	4
041013	11:05	65	peka	59	1614	peka
041013	11:05	65	4peka	60	1192	1
041013	11:05	65	scar	61	1601	scar
041013	11:05	65	20scar	62	1588	4
041013	11:05	65	cow	63	1478	cow
041013	11:05	65	16cow	64	709	5
041013	11:05	65	pems	65	1865	pems
041013	11:05	65	4pems	66	538	4
041013	11:05	65	yeet	67	1637	yeet
041013	11:05	65	3yeet	68	662	1
041013	11:05	65	sad	69	1348	sad
041013	11:05	65	20sad	70	1585	4
041013	11:05	65	wish	71	1347	wish
041013	11:05	65	17wish	72	1888	9
041013	11:05	65	lik	73	1478	lik
041013	11:05	65	11lik	74	565	1
041013	11:05	65	jobe	75	2567	jobe
041013	11:05	65	1jobe	76	435	3
041013	11:05	65	voom	77	1747	voom
041013	11:05	65	7voom	78	1103	6
041013	11:05	65	tage	79	1413	tage
041013	11:05	65	9tage	80	751	2
041013	11:05	65	yate	81	1769	yate
041013	11:05	65	2yate	82	1886	5
041013	11:05	65	yoop	83	1835	yoop
041013	11:05	65	11yoop	84	1533	1
041013	11:05	65	tutk	85	1801	tutk
041013	11:05	65	5tutk	86	1219	2
041013	11:05	65	life	87	1380	life
041013	11:05	65	12life	88	615	9
041013	11:05	65	woem	89	1503	woem
041013	11:05	65	4woem	90	502	9
041013	11:05	65	silk	91	2171	silk
041013	11:05	65	19silk	92	2015	5
041013	11:05	65	slin	93	3271	slin
041013	11:05	65	6slin	94	1192	4
041013	11:05	65	hay	95	1466	hay
041013	11:05	65	17hay	96	594	3
041013	11:05	65	tove	97	1515	tove
041013	11:05	65	3tove	98	1953	5
041013	11:05	65	voke	99	1340	voke
041013	11:05	65	6voke	100	409	5
041013	11:05	65	pill	101	3058	pill
041013	11:05	65	23pill	102	1555	2
041013	11:05	65	nofe	103	1422	nofe
041013	11:05	65	1nofe	104	976	6
041013	11:05	65	jufe	105	1154	jufe
041013	11:05	65	24jufe	106	1470	9
041013	11:05	65	girl	107	1397	girl
041013	11:05	65	17girl	108	303	9
041013	11:05	65	neeb	109	1252	neeb
041013	11:05	65	3neeb	110	1485	9
041013	11:05	65	foof	111	1554	foof
041013	11:05	65	7foof	112	327	9
041013	11:05	65	flin	113	2066	flin
041013	11:05	65	6flin	114	2763	7
041013	11:05	65	meef	115	1438	meef
041013	11:05	65	3meef	116	1655	3
041013	11:05	65	lool	117	1558	lool
041013	11:05	65	11lool	118	1819	8
041013	11:05	65	wasp	119	2123	wasp
041013	11:05	65	15wasp	120	1442	5
041013	11:05	65	tomb	121	1298	tomb
041013	11:05	65	19tomb	122	832	6
041013	11:05	65	mafe	123	1848	mafe
041013	11:05	65	2mafe	124	793	7
041013	11:05	65	snob	125	1258	snob
041013	11:05	65	18snob	126	627	9
041013	11:05	65	voop	127	1314	voop
041013	11:05	65	7voop	128	1152	2
041013	11:05	65	pluk	129	2403	pluk
041013	11:05	65	10pluk	130	654	1
041013	11:05	65	obey	131	1821	obey
041013	11:05	65	14obey	132	559	1
041013	11:05	65	wac	133	1466	wac
041013	11:05	65	8wac	134	1162	5
041013	11:05	65	bath	135	1316	bath
041013	11:05	65	15bath	136	658	5
041013	11:05	65	leel	137	1473	leel
041013	11:05	65	3leel	138	3161	6
041013	11:05	65	aqil	139	3044	aqil
041013	11:05	65	24aqil	140	853	1
041013	11:05	65	nilo	141	1796	nilo
041013	11:05	65	11nilo	142	511	1
041013	11:05	65	nude	143	1235	nude
041013	11:05	65	13nude	144	596	9
041013	11:05	65	soog	145	1269	soog
041013	11:05	65	7soog	146	325	9
041013	11:05	65	cute	147	1145	cute
041013	11:05	65	15cute	148	285	9
041013	11:05	65	eat	149	1267	eat
041013	11:05	65	20eat	150	691	2
041013	11:05	65	zabe	151	1992	zabe
041013	11:05	65	9zabe	152	747	1
041013	11:05	65	baby	153	3094	baby
041013	11:05	65	15baby	154	1717	8
041013	11:05	65	zafe	155	1450	zafe
041013	11:05	65	9zafe	156	2618	1
041013	11:05	65	bowl	157	1387	bowl
041013	11:05	65	17bowl	158	6070	5
041013	11:05	65	pom	159	1374	pom
041013	11:05	65	22pom	160	530	1
041013	11:05	65	joom	161	1966	joom
041013	11:05	65	11joom	162	786	3
041013	11:05	65	kige	163	6995	kige
041013	11:05	65	24kige	164	552	1
041013	11:05	65	kabe	165	1331	kabe
041013	11:05	65	2kabe	166	608	4
041013	11:05	65	seat	167	2905	sea
041013	11:05	65	20seat	168	5224	2
041013	11:05	65	vape	169	3114	vape
041013	11:05	65	2vape	170	513	1
041013	11:05	65	dlip	171	1541	dlip
041013	11:05	65	6dlip	172	1082	1
041013	11:05	65	fear	173	1271	fear
041013	11:05	65	21fear	174	935	6
041013	11:05	65	song	175	1067	song
041013	11:05	65	18song	176	907	7
041013	11:05	65	lip	177	1160	lip
041013	11:05	65	22lip	178	700	1
041013	11:05	65	melb	179	1248	melb
041013	11:05	65	4melb	180	713	3
041013	11:05	65	nuad	181	2061	nuad
041013	11:05	65	24nuad	182	1405	1
041013	11:05	65	hil	183	1279	hil
041013	11:05	65	10hil	184	470	1
041013	11:05	65	jip	185	1284	jip
041013	11:05	65	22jip	186	324	1
041013	11:05	65	anay	187	1463	anay
041013	11:05	65	5anay	188	1215	5
041013	11:05	65	lust	189	1999	lust
041013	11:05	65	12lust	190	1491	9
041013	11:05	65	tez	191	1448	tez
041013	11:05	65	8tez	192	649	1
041013	11:05	65	yame	193	1256	yame
041013	11:05	65	5yame	194	1968	4
041013	11:05	65	name	195	1099	name
041013	11:05	65	17name	196	546	9
041013	11:05	65	dawn	197	2484	dawn
041013	11:05	65	14dawn	198	564	2
041013	11:05	65	sun	199	1078	sun
041013	11:05	65	19sun	200	486	9
041013	11:05	65	arm	201	1123	arm
041013	11:05	65	14arm	202	2297	5
041013	11:05	65	pobe	203	1174	pobe
041013	11:05	65	1pobe	204	258	5
041013	11:05	65	fish	205	1688	fish
041013	11:05	65	16fish	206	528	9
041013	11:05	65	lids	207	1363	lids
041013	11:05	65	12lids	208	343	9
041013	11:05	65	zest	209	2282	zest
041013	11:05	65	20zest	210	2498	1
041013	11:05	65	celm	211	2271	celm
041013	11:05	65	24celm	212	696	1
041013	11:05	65	yip	213	1996	yip
041013	11:05	65	22yip	214	791	1
041013	11:05	65	noon	215	1352	noon
041013	11:05	65	23noon	216	837	9
041013	11:05	65	cell	217	1197	cell
041013	11:05	65	13cell	218	287	9
041013	11:05	65	air	219	1781	air
041013	11:05	65	16air	220	288	9
041013	11:05	65	veed	221	1917	veed
041013	11:05	65	9veed	222	1012	4
041013	11:05	65	wife	223	1092	wife
041013	11:05	65	14wife	224	739	9
041013	11:05	65	waf	225	1399	waf
041013	11:05	65	8waf	226	753	1
041013	11:05	65	lim	227	1220	lim
041013	11:05	65	10lim	228	886	1
041013	11:05	65	liar	229	2564	lira
041013	11:05	65	12liar	230	1352	9
041013	11:05	65	bed	231	1051	bed
041013	11:05	65	21bed	232	260	9
041013	11:05	65	star	233	1546	star
041013	11:05	65	21star	234	686	2
041013	11:05	65	clim	235	2492	clim
041013	11:05	65	6clim	236	3548	1
041013	11:05	65	alfi	237	1335	alfi
041013	11:05	65	4alfi	238	1517	9
041013	11:05	65	fat	239	1153	fat
041013	11:05	65	21fat	240	1494	1
041513	09:59	546	speed	1	3655	37
041513	09:59	546	error	2	1892	97
041513	09:59	546	whichhand	3	5638	right
041513	09:59	546	yane	1	7242	yane
041513	09:59	546	5yane	2	3328	5
041513	09:59	546	army	3	3208	army
041513	09:59	546	13army	4	1648	8
041513	09:59	546	beeg	5	4610	beeg
041513	09:59	546	9beeg	6	1209	5
041513	09:59	546	lion	7	3999	lion
041513	09:59	546	23lion	8	4358	9
041513	09:59	546	taxe	9	3879	taxe
041513	09:59	546	8taxe	10	2026	5
041513	09:59	546	pest	11	3159	pest
041513	09:59	546	14pest	12	3598	1
041513	09:59	546	sour	13	3005	sour
041513	09:59	546	18sour	14	1507	1
041513	09:59	546	jame	15	2701	jame
041513	09:59	546	5jame	16	647	5
041513	09:59	546	ugly	17	3445	ugly
041513	09:59	546	19ugly	18	3312	1
041513	09:59	546	mom	19	2163	mom
041513	09:59	546	23mom	20	2914	9
041513	09:59	546	lake	21	2364	lake
041513	09:59	546	16lake	22	1332	9
041513	09:59	546	bees	23	3253	bees
041513	09:59	546	21bees	24	1944	2
041513	09:59	546	nip	25	2200	nip
041513	09:59	546	22nip	26	2819	5
041513	09:59	546	nop	27	2243	nop
041513	09:59	546	10nop	28	1557	5
041513	09:59	546	blue	29	2560	blue
041513	09:59	546	18blue	30	2488	9
041513	09:59	546	cold	31	2211	cold
041513	09:59	546	19cold	32	888	2
041513	09:59	546	lice	33	2298	lice
041513	09:59	546	13lice	34	1621	1
041513	09:59	546	dax	35	2906	dax
041513	09:59	546	8dax	36	1636	5
041513	09:59	546	plin	37	2753	plin
041513	09:59	546	10plin	38	2552	5
041513	09:59	546	lump	39	2485	lump
041513	09:59	546	23lump	40	2204	1
041513	09:59	546	win	41	2523	win
041513	09:59	546	18win	42	836	9
041513	09:59	546	jabe	43	2473	jabe
041513	09:59	546	2jabe	44	2476	5
041513	09:59	546	yofe	45	12465	yofe
041513	09:59	546	1yofe	46	2115	5
041513	09:59	546	soob	47	2127	soob
041513	09:59	546	7soob	48	781	5
041513	09:59	546	slap	49	2534	slap
041513	09:59	546	16slap	50	719	1
041513	09:59	546	nobe	51	2736	nobe
041513	09:59	546	1nobe	52	1918	5
041513	09:59	546	frog	53	2738	frog
041513	09:59	546	15frog	54	1866	7
041513	09:59	546	more	55	2214	more
041513	09:59	546	12more	56	1771	4
041513	09:59	546	hide	57	2995	hide
041513	09:59	546	13hide	58	673	3
041513	09:59	546	peka	59	2474	peka
041513	09:59	546	4peka	60	2205	5
041513	09:59	546	scar	61	2685	scar
041513	09:59	546	20scar	62	864	1
041513	09:59	546	cow	63	2067	cow
041513	09:59	546	16cow	64	918	3
041513	09:59	546	pems	65	3615	pems
041513	09:59	546	4pems	66	718	5
041513	09:59	546	yeet	67	2606	yeet
041513	09:59	546	3yeet	68	1925	5
041513	09:59	546	sad	69	2741	sad
041513	09:59	546	20sad	70	3463	1
041513	09:59	546	wish	71	2370	wish
041513	09:59	546	17wish	72	1186	9
041513	09:59	546	lik	73	1913	lik
041513	09:59	546	11lik	74	1882	5
041513	09:59	546	jobe	75	2525	jobe
041513	09:59	546	1jobe	76	1582	5
041513	09:59	546	voom	77	4853	voom
041513	09:59	546	7voom	78	2074	7
041513	09:59	546	tage	79	2269	tage
041513	09:59	546	9tage	80	1625	5
041513	09:59	546	yate	81	2166	yate
041513	09:59	546	2yate	82	830	5
041513	09:59	546	yoop	83	3002	yoop
041513	09:59	546	11yoop	84	1216	5
041513	09:59	546	tutk	85	2682	tutk
041513	09:59	546	5tutk	86	1569	5
041513	09:59	546	life	87	2119	life
041513	09:59	546	12life	88	722	9
041513	09:59	546	woem	89	2810	woem
041513	09:59	546	4woem	90	1328	5
041513	09:59	546	silk	91	2753	silk
041513	09:59	546	19silk	92	2161	9
041513	09:59	546	slin	93	2424	slin
041513	09:59	546	6slin	94	1462	5
041513	09:59	546	hay	95	1993	hay
041513	09:59	546	17hay	96	1031	2
041513	09:59	546	tove	97	2522	tove
041513	09:59	546	3tove	98	1860	5
041513	09:59	546	voke	99	2863	voke
041513	09:59	546	6voke	100	772	5
041513	09:59	546	pill	101	1987	pill
041513	09:59	546	23pill	102	2513	3
041513	09:59	546	nofe	103	2090	nofe
041513	09:59	546	1nofe	104	741	5
041513	09:59	546	jufe	105	2334	jufe
041513	09:59	546	24jufe	106	719	5
041513	09:59	546	girl	107	2839	girl
041513	09:59	546	17girl	108	997	9
041513	09:59	546	neeb	109	5954	neeb
041513	09:59	546	3neeb	110	1508	5
041513	09:59	546	foof	111	2693	foof
041513	09:59	546	7foof	112	1424	5
041513	09:59	546	flin	113	2437	flin
041513	09:59	546	6flin	114	1218	5
041513	09:59	546	meef	115	2471	meef
041513	09:59	546	3meef	116	1619	5
041513	09:59	546	lool	117	1952	lool
041513	09:59	546	11lool	118	1281	5
041513	09:59	546	wasp	119	2250	wasp
041513	09:59	546	15wasp	120	831	2
041513	09:59	546	tomb	121	2578	tomb
041513	09:59	546	19tomb	122	578	1
041513	09:59	546	mafe	123	2600	mafe
041513	09:59	546	2mafe	124	1103	1
041513	09:59	546	snob	125	2392	snob
041513	09:59	546	18snob	126	535	1
041513	09:59	546	voop	127	3335	voop
041513	09:59	546	7voop	128	760	5
041513	09:59	546	pluk	129	3863	pluk
041513	09:59	546	10pluk	130	1307	5
041513	09:59	546	obey	131	2836	obey
041513	09:59	546	14obey	132	754	2
041513	09:59	546	wac	133	2233	wac
041513	09:59	546	8wac	134	646	5
041513	09:59	546	bath	135	2074	bath
041513	09:59	546	15bath	136	749	9
041513	09:59	546	leel	137	1941	leel
041513	09:59	546	3leel	138	1150	2
041513	09:59	546	aqil	139	4669	aqil
041513	09:59	546	24aqil	140	1602	5
041513	09:59	546	nilo	141	1919	nilo
041513	09:59	546	11nilo	142	1489	5
041513	09:59	546	nude	143	2131	nude
041513	09:59	546	13nude	144	732	5
041513	09:59	546	soog	145	2140	soog
041513	09:59	546	7soog	146	894	5
041513	09:59	546	cute	147	2487	cute
041513	09:59	546	15cute	148	1139	9
041513	09:59	546	eat	149	1986	eat
041513	09:59	546	20eat	150	610	9
041513	09:59	546	zabe	151	3254	zabe
041513	09:59	546	9zabe	152	1491	5
041513	09:59	546	baby	153	2254	baby
041513	09:59	546	15baby	154	1898	9
041513	09:59	546	zafe	155	3884	zafe
041513	09:59	546	9zafe	156	528	5
041513	09:59	546	bowl	157	1975	bowl
041513	09:59	546	17bowl	158	583	5
041513	09:59	546	pom	159	2213	pom
041513	09:59	546	22pom	160	2011	5
041513	09:59	546	joom	161	2176	joom
041513	09:59	546	11joom	162	871	5
041513	09:59	546	kige	163	2194	kige
041513	09:59	546	24kige	164	952	5
041513	09:59	546	kabe	165	2672	kabe
041513	09:59	546	2kabe	166	628	5
041513	09:59	546	seat	167	2463	seat
041513	09:59	546	20seat	168	1220	5
041513	09:59	546	vape	169	2624	vape
041513	09:59	546	2vape	170	766	5
041513	09:59	546	dlip	171	6005	dlip
041513	09:59	546	6dlip	172	1397	5
041513	09:59	546	fear	173	2378	fear
041513	09:59	546	21fear	174	809	1
041513	09:59	546	song	175	2007	song
041513	09:59	546	18song	176	1029	7
041513	09:59	546	lip	177	1849	lip
041513	09:59	546	22lip	178	733	5
041513	09:59	546	melb	179	2709	melb
041513	09:59	546	4melb	180	920	5
041513	09:59	546	nuad	181	2952	nuad
041513	09:59	546	24nuad	182	1225	5
041513	09:59	546	hil	183	2285	hil
041513	09:59	546	10hil	184	1905	5
041513	09:59	546	jip	185	2170	jip
041513	09:59	546	22jip	186	1306	5
041513	09:59	546	anay	187	2260	anay
041513	09:59	546	5anay	188	1952	5
041513	09:59	546	lust	189	3767	lust
041513	09:59	546	12lust	190	1232	5
041513	09:59	546	tez	191	2404	tez
041513	09:59	546	8tez	192	1994	5
041513	09:59	546	yame	193	2192	yame
041513	09:59	546	5yame	194	1599	5
041513	09:59	546	name	195	2077	name
041513	09:59	546	17name	196	728	5
041513	09:59	546	dawn	197	2136	dawn
041513	09:59	546	14dawn	198	593	9
041513	09:59	546	sun	199	1847	sun
041513	09:59	546	19sun	200	739	9
041513	09:59	546	arm	201	2043	arm
041513	09:59	546	14arm	202	680	5
041513	09:59	546	pobe	203	2233	pobe
041513	09:59	546	1pobe	204	743	5
041513	09:59	546	fish	205	2335	fish
041513	09:59	546	16fish	206	1552	5
041513	09:59	546	lids	207	2239	lids
041513	09:59	546	12lids	208	580	5
041513	09:59	546	zest	209	2498	zest
041513	09:59	546	20zest	210	765	5
041513	09:59	546	celm	211	2283	celm
041513	09:59	546	24celm	212	695	5
041513	09:59	546	yip	213	2648	yip
041513	09:59	546	22yip	214	1101	5
041513	09:59	546	noon	215	2790	noon
041513	09:59	546	23noon	216	1662	5
041513	09:59	546	cell	217	1888	cell
041513	09:59	546	13cell	218	827	5
041513	09:59	546	air	219	1903	air
041513	09:59	546	16air	220	586	5
041513	09:59	546	veed	221	2176	veed
041513	09:59	546	9veed	222	719	5
041513	09:59	546	wife	223	2519	wife
041513	09:59	546	14wife	224	674	9
041513	09:59	546	waf	225	2076	waf
041513	09:59	546	8waf	226	1359	5
041513	09:59	546	lim	227	1839	lim
041513	09:59	546	10lim	228	1260	5
041513	09:59	546	liar	229	2006	liar
041513	09:59	546	12liar	230	1349	1
041513	09:59	546	bed	231	1852	bed
041513	09:59	546	21bed	232	665	9
041513	09:59	546	star	233	1907	star
041513	09:59	546	21star	234	1102	5
041513	09:59	546	clim	235	2543	clim
041513	09:59	546	6clim	236	896	5
041513	09:59	546	alfi	237	2273	slfi
041513	09:59	546	4alfi	238	1493	5
041513	09:59	546	fat	239	2846	fat
041513	09:59	546	21fat	240	747	1
041513	10:27	654	speed	1	4528	39
041513	10:27	654	error	2	3223	97
041513	10:27	654	whichhand	3	12880	right
041513	10:27	654	yane	1	4482	yane
041513	10:27	654	5yane	2	13357	6
041513	10:27	654	army	3	3969	army
041513	10:27	654	13army	4	3473	5
041513	10:27	654	beeg	5	3013	beeg
041513	10:27	654	9beeg	6	2619	9
041513	10:27	654	lion	7	6504	lion
041513	10:27	654	23lion	8	1380	8
041513	10:27	654	taxe	9	3803	taxe
041513	10:27	654	8taxe	10	1841	5
041513	10:27	654	pest	11	3198	pest
041513	10:27	654	14pest	12	997	8
041513	10:27	654	sour	13	2922	sour
041513	10:27	654	18sour	14	932	8
041513	10:27	654	jame	15	2660	jame
041513	10:27	654	5jame	16	1104	6
041513	10:27	654	ugly	17	2650	ugly
041513	10:27	654	19ugly	18	654	8
041513	10:27	654	mom	19	2353	mom
041513	10:27	654	23mom	20	2626	6
041513	10:27	654	lake	21	3423	lake
041513	10:27	654	16lake	22	1229	8
041513	10:27	654	bees	23	3169	bees
041513	10:27	654	21bees	24	1817	6
041513	10:27	654	nip	25	3110	nip
041513	10:27	654	22nip	26	1624	6
041513	10:27	654	nop	27	2085	nop
041513	10:27	654	10nop	28	712	8
041513	10:27	654	blue	29	2481	blue
041513	10:27	654	18blue	30	828	8
041513	10:27	654	cold	31	6496	cold
041513	10:27	654	19cold	32	2116	6
041513	10:27	654	lice	33	3501	lice
041513	10:27	654	13lice	34	984	5
041513	10:27	654	dax	35	2614	dax
041513	10:27	654	8dax	36	548	6
041513	10:27	654	plin	37	3403	plin
041513	10:27	654	10plin	38	874	4
041513	10:27	654	lump	39	2493	lump
041513	10:27	654	23lump	40	488	4
041513	10:27	654	win	41	2513	win
041513	10:27	654	18win	42	763	8
041513	10:27	654	jabe	43	3074	jabe
041513	10:27	654	2jabe	44	454	5
041513	10:27	654	yofe	45	8345	yofe
041513	10:27	654	1yofe	46	828	5
041513	10:27	654	soob	47	2728	soob
041513	10:27	654	7soob	48	441	6
041513	10:27	654	slap	49	1893	slap
041513	10:27	654	16slap	50	951	8
041513	10:27	654	nobe	51	3735	nobe
041513	10:27	654	1nobe	52	432	5
041513	10:27	654	frog	53	2340	frog
041513	10:27	654	15frog	54	717	8
041513	10:27	654	more	55	2094	more
041513	10:27	654	12more	56	1504	8
041513	10:27	654	hide	57	2402	hide
041513	10:27	654	13hide	58	728	8
041513	10:27	654	peka	59	3033	peka
041513	10:27	654	4peka	60	966	5
041513	10:27	654	scar	61	2341	scar
041513	10:27	654	20scar	62	1365	6
041513	10:27	654	cow	63	3069	cow
041513	10:27	654	16cow	64	824	6
041513	10:27	654	pems	65	2310	pems
041513	10:27	654	4pems	66	431	5
041513	10:27	654	yeet	67	2963	yeet
041513	10:27	654	3yeet	68	667	5
041513	10:27	654	sad	69	2182	sad
041513	10:27	654	20sad	70	1141	4
041513	10:27	654	wish	71	2285	wish
041513	10:27	654	17wish	72	776	8
041513	10:27	654	lik	73	2014	lik
041513	10:27	654	11lik	74	428	5
041513	10:27	654	jobe	75	2272	jobe
041513	10:27	654	1jobe	76	1132	5
041513	10:27	654	voom	77	3460	voom
041513	10:27	654	7voom	78	936	9
041513	10:27	654	tage	79	2720	tage
041513	10:27	654	9tage	80	410	5
041513	10:27	654	yate	81	3775	yate
041513	10:27	654	2yate	82	414	5
041513	10:27	654	yoop	83	2515	yoop
041513	10:27	654	11yoop	84	916	7
041513	10:27	654	tutk	85	3333	tutk
041513	10:27	654	5tutk	86	783	5
041513	10:27	654	life	87	2285	life
041513	10:27	654	12life	88	576	9
041513	10:27	654	woem	89	2135	woem
041513	10:27	654	4woem	90	359	5
041513	10:27	654	silk	91	2750	silk
041513	10:27	654	19silk	92	535	8
041513	10:27	654	slin	93	2063	slin
041513	10:27	654	6slin	94	466	6
041513	10:27	654	hay	95	2557	hay
041513	10:27	654	17hay	96	526	9
041513	10:27	654	tove	97	2390	tove
041513	10:27	654	3tove	98	373	5
041513	10:27	654	voke	99	3324	voke
041513	10:27	654	6voke	100	614	7
041513	10:27	654	pill	101	2747	pill
041513	10:27	654	23pill	102	755	6
041513	10:27	654	nofe	103	3515	nofe
041513	10:27	654	1nofe	104	341	5
041513	10:27	654	jufe	105	2901	jufe
041513	10:27	654	24jufe	106	399	5
041513	10:27	654	girl	107	2621	girl
041513	10:27	654	17girl	108	1354	8
041513	10:27	654	neeb	109	2770	neeb
041513	10:27	654	3neeb	110	578	5
041513	10:27	654	foof	111	2048	foof
041513	10:27	654	7foof	112	364	5
041513	10:27	654	flin	113	5035	flin
041513	10:27	654	6flin	114	377	3
041513	10:27	654	meef	115	2847	meef
041513	10:27	654	3meef	116	379	6
041513	10:27	654	lool	117	2225	lool
041513	10:27	654	11lool	118	886	7
041513	10:27	654	wasp	119	3241	wasp
041513	10:27	654	15wasp	120	326	2
041513	10:27	654	tomb	121	2542	tomb
041513	10:27	654	19tomb	122	831	7
041513	10:27	654	mafe	123	2355	mafe
041513	10:27	654	2mafe	124	403	5
041513	10:27	654	snob	125	2729	snob
041513	10:27	654	18snob	126	1850	1
041513	10:27	654	voop	127	3318	voop
041513	10:27	654	7voop	128	408	5
041513	10:27	654	pluk	129	2917	pluk
041513	10:27	654	10pluk	130	1815	8
041513	10:27	654	obey	131	2532	obey
041513	10:27	654	14obey	132	621	8
041513	10:27	654	wac	133	2402	wac
041513	10:27	654	8wac	134	608	6
041513	10:27	654	bath	135	1838	bath
041513	10:27	654	15bath	136	867	9
041513	10:27	654	leel	137	2646	leel
041513	10:27	654	3leel	138	410	6
041513	10:27	654	aqil	139	3007	aqil
041513	10:27	654	24aqil	140	381	5
041513	10:27	654	nilo	141	2875	nilo
041513	10:27	654	11nilo	142	414	5
041513	10:27	654	nude	143	2579	nude
041513	10:27	654	13nude	144	874	8
041513	10:27	654	soog	145	2725	soog
041513	10:27	654	7soog	146	366	5
041513	10:27	654	cute	147	2501	cute
041513	10:27	654	15cute	148	487	9
041513	10:27	654	eat	149	2073	eat
041513	10:27	654	20eat	150	437	9
041513	10:27	654	zabe	151	2633	zabe
041513	10:27	654	9zabe	152	406	8
041513	10:27	654	baby	153	1731	baby
041513	10:27	654	15baby	154	556	8
041513	10:27	654	zafe	155	3132	zafe
041513	10:27	654	9zafe	156	349	5
041513	10:27	654	bowl	157	2396	bowl
041513	10:27	654	17bowl	158	499	7
041513	10:27	654	pom	159	2012	pom
041513	10:27	654	22pom	160	2442	8
041513	10:27	654	joom	161	3638	joom
041513	10:27	654	11joom	162	572	5
041513	10:27	654	kige	163	2587	kige
041513	10:27	654	24kige	164	522	5
041513	10:27	654	kabe	165	2730	kabe
041513	10:27	654	2kabe	166	532	5
041513	10:27	654	seat	167	2364	seat
041513	10:27	654	20seat	168	811	6
041513	10:27	654	vape	169	3088	vape
041513	10:27	654	2vape	170	563	8
041513	10:27	654	dlip	171	3314	dlip
041513	10:27	654	6dlip	172	596	8
041513	10:27	654	fear	173	2226	fear
041513	10:27	654	21fear	174	439	4
041513	10:27	654	song	175	2595	song
041513	10:27	654	18song	176	497	9
041513	10:27	654	lip	177	1907	lip
041513	10:27	654	22lip	178	693	3
041513	10:27	654	melb	179	2111	melb
041513	10:27	654	4melb	180	440	5
041513	10:27	654	nuad	181	3700	nuad
041513	10:27	654	24nuad	182	511	5
041513	10:27	654	hil	183	2448	hil
041513	10:27	654	10hil	184	492	5
041513	10:27	654	jip	185	2398	jip
041513	10:27	654	22jip	186	453	5
041513	10:27	654	anay	187	2392	anay
041513	10:27	654	5anay	188	342	5
041513	10:27	654	lust	189	4135	lust
041513	10:27	654	12lust	190	536	8
041513	10:27	654	tez	191	3040	tez
041513	10:27	654	8tez	192	437	5
041513	10:27	654	yame	193	3362	yame
041513	10:27	654	5yame	194	730	5
041513	10:27	654	name	195	1874	name
041513	10:27	654	17name	196	445	5
041513	10:27	654	dawn	197	3608	dawn
041513	10:27	654	14dawn	198	375	7
041513	10:27	654	sun	199	2477	sun
041513	10:27	654	19sun	200	512	9
041513	10:27	654	arm	201	1889	arm
041513	10:27	654	14arm	202	532	6
041513	10:27	654	pobe	203	2732	pobe
041513	10:27	654	1pobe	204	381	5
041513	10:27	654	fish	205	2907	fich
041513	10:27	654	16fish	206	446	9
041513	10:27	654	lids	207	7033	lids
041513	10:27	654	12lids	208	920	6
041513	10:27	654	zest	209	2809	zest
041513	10:27	654	20zest	210	566	9
041513	10:27	654	celm	211	3741	celm
041513	10:27	654	24celm	212	671	4
041513	10:27	654	yip	213	2705	yip
041513	10:27	654	22yip	214	468	8
041513	10:27	654	noon	215	2079	noon
041513	10:27	654	23noon	216	514	8
041513	10:27	654	cell	217	3314	cell
041513	10:27	654	13cell	218	492	7
041513	10:27	654	air	219	2078	air
041513	10:27	654	16air	220	4761	9
041513	10:27	654	veed	221	3953	veed
041513	10:27	654	9veed	222	522	7
041513	10:27	654	wife	223	2987	wife
041513	10:27	654	14wife	224	2354	6
041513	10:27	654	waf	225	2386	waf
041513	10:27	654	8waf	226	345	5
041513	10:27	654	lim	227	2473	lim
041513	10:27	654	10lim	228	436	5
041513	10:27	654	liar	229	3024	liar
041513	10:27	654	12liar	230	742	3
041513	10:27	654	bed	231	2287	bed
041513	10:27	654	21bed	232	537	9
041513	10:27	654	star	233	2345	star
041513	10:27	654	21star	234	538	9
041513	10:27	654	clim	235	2378	slim
041513	10:27	654	6clim	236	657	4
041513	10:27	654	alfi	237	2932	alfi
041513	10:27	654	4alfi	238	1190	8
041513	10:27	654	fat	239	3060	fat
041513	10:27	654	21fat	240	632	2
041513	10:45	984	speed	1	3052	43
041513	10:45	984	error	2	1455	95
041513	10:45	984	whichhand	3	8822	Right
041513	10:45	984	yane	1	6220	Yane
041513	10:45	984	5yane	2	10579	3
041513	10:45	984	army	3	5700	army
041513	10:45	984	13army	4	2648	4
041513	10:45	984	beeg	5	4532	beeg
041513	10:45	984	9beeg	6	2918	4
041513	10:45	984	lion	7	3695	lion
041513	10:45	984	23lion	8	1194	6
041513	10:45	984	taxe	9	4656	taxe
041513	10:45	984	8taxe	10	3389	4
041513	10:45	984	pest	11	4196	pest
041513	10:45	984	14pest	12	4907	2
041513	10:45	984	sour	13	2670	sour
041513	10:45	984	18sour	14	698	2
041513	10:45	984	jame	15	11128	jame
041513	10:45	984	5jame	16	5407	3
041513	10:45	984	ugly	17	3335	ugly
041513	10:45	984	19ugly	18	1432	4
041513	10:45	984	mom	19	2436	mom
041513	10:45	984	23mom	20	1698	9
041513	10:45	984	lake	21	2931	lake
041513	10:45	984	16lake	22	1141	8
041513	10:45	984	bees	23	3125	bees
041513	10:45	984	21bees	24	983	1
041513	10:45	984	nip	25	2997	nip
041513	10:45	984	22nip	26	675	4
041513	10:45	984	nop	27	2502	nop
041513	10:45	984	10nop	28	825	2
041513	10:45	984	blue	29	2981	blue
041513	10:45	984	18blue	30	1253	6
041513	10:45	984	cold	31	3008	cold
041513	10:45	984	19cold	32	911	6
041513	10:45	984	lice	33	2303	lice
041513	10:45	984	13lice	34	730	1
041513	10:45	984	dax	35	3338	dax
041513	10:45	984	8dax	36	828	1
041513	10:45	984	plin	37	2368	plin
041513	10:45	984	10plin	38	1640	5
041513	10:45	984	lump	39	3396	lump
041513	10:45	984	23lump	40	2923	6
041513	10:45	984	win	41	3084	win
041513	10:45	984	18win	42	992	9
041513	10:45	984	jabe	43	2269	jabe
041513	10:45	984	2jabe	44	2570	4
041513	10:45	984	yofe	45	3449	yofe
041513	10:45	984	1yofe	46	766	2
041513	10:45	984	soob	47	2604	soob
041513	10:45	984	7soob	48	1866	3
041513	10:45	984	slap	49	2486	slap
041513	10:45	984	16slap	50	833	5
041513	10:45	984	nobe	51	2741	nobe
041513	10:45	984	1nobe	52	1543	5
041513	10:45	984	frog	53	2703	frog
041513	10:45	984	15frog	54	1569	6
041513	10:45	984	more	55	2240	more
041513	10:45	984	12more	56	2181	7
041513	10:45	984	hide	57	3324	hide
041513	10:45	984	13hide	58	1534	6
041513	10:45	984	peka	59	3990	peka
041513	10:45	984	4peka	60	1518	2
041513	10:45	984	scar	61	2303	scar
041513	10:45	984	20scar	62	881	3
041513	10:45	984	cow	63	2195	cow
041513	10:45	984	16cow	64	1394	6
041513	10:45	984	pems	65	2415	pems
041513	10:45	984	4pems	66	589	3
041513	10:45	984	yeet	67	4099	yeet
041513	10:45	984	3yeet	68	2014	6
041513	10:45	984	sad	69	1923	sad
041513	10:45	984	20sad	70	669	5
041513	10:45	984	wish	71	2216	wish
041513	10:45	984	17wish	72	1910	5
041513	10:45	984	lik	73	2367	lik
041513	10:45	984	11lik	74	1863	6
041513	10:45	984	jobe	75	2594	jobe
041513	10:45	984	1jobe	76	1032	5
041513	10:45	984	voom	77	2100	voom
041513	10:45	984	7voom	78	702	5
041513	10:45	984	tage	79	2712	tage
041513	10:45	984	9tage	80	1258	5
041513	10:45	984	yate	81	2341	yate
041513	10:45	984	2yate	82	799	4
041513	10:45	984	yoop	83	3660	yoop
041513	10:45	984	11yoop	84	1160	5
041513	10:45	984	tutk	85	3119	tutk
041513	10:45	984	5tutk	86	993	5
041513	10:45	984	life	87	3254	life
041513	10:45	984	12life	88	731	9
041513	10:45	984	woem	89	4715	woem
041513	10:45	984	4woem	90	2510	5
041513	10:45	984	silk	91	1919	silk
041513	10:45	984	19silk	92	2737	5
041513	10:45	984	slin	93	1833	slin
041513	10:45	984	6slin	94	542	5
041513	10:45	984	hay	95	2566	hay
041513	10:45	984	17hay	96	1229	5
041513	10:45	984	tove	97	2834	tove
041513	10:45	984	3tove	98	656	5
041513	10:45	984	voke	99	2203	voke
041513	10:45	984	6voke	100	634	5
041513	10:45	984	pill	101	4565	pill
041513	10:45	984	23pill	102	894	5
041513	10:45	984	nofe	103	2039	nofe
041513	10:45	984	1nofe	104	445	5
041513	10:45	984	jufe	105	3576	jufe
041513	10:45	984	24jufe	106	616	5
041513	10:45	984	girl	107	4372	girl
041513	10:45	984	17girl	108	901	9
041513	10:45	984	neeb	109	2238	neeb
041513	10:45	984	3neeb	110	498	5
041513	10:45	984	foof	111	2516	foof
041513	10:45	984	7foof	112	1350	5
041513	10:45	984	flin	113	3742	flin
041513	10:45	984	6flin	114	535	5
041513	10:45	984	meef	115	2951	meef
041513	10:45	984	3meef	116	1055	5
041513	10:45	984	lool	117	4627	lool
041513	10:45	984	11lool	118	689	5
041513	10:45	984	wasp	119	2691	wasp
041513	10:45	984	15wasp	120	677	1
041513	10:45	984	tomb	121	2200	tomb
041513	10:45	984	19tomb	122	567	5
041513	10:45	984	mafe	123	1773	mafe
041513	10:45	984	2mafe	124	573	5
041513	10:45	984	snob	125	1827	snob
041513	10:45	984	18snob	126	616	5
041513	10:45	984	voop	127	4517	voop
041513	10:45	984	7voop	128	704	5
041513	10:45	984	pluk	129	4168	pluk
041513	10:45	984	10pluk	130	833	5
041513	10:45	984	obey	131	2061	obey
041513	10:45	984	14obey	132	521	5
041513	10:45	984	wac	133	3250	wac
041513	10:45	984	8wac	134	806	5
041513	10:45	984	bath	135	4643	bath
041513	10:45	984	15bath	136	593	9
041513	10:45	984	leel	137	1623	leel
041513	10:45	984	3leel	138	588	5
041513	10:45	984	aqil	139	5298	aqil
041513	10:45	984	24aqil	140	1054	5
041513	10:45	984	nilo	141	5425	nilo
041513	10:45	984	11nilo	142	6944	5
041513	10:45	984	nude	143	5366	nude
041513	10:45	984	13nude	144	2762	9
041513	10:45	984	soog	145	3049	soog
041513	10:45	984	7soog	146	2190	5
041513	10:45	984	cute	147	2341	cute
041513	10:45	984	15cute	148	766	5
041513	10:45	984	eat	149	3140	eat
041513	10:45	984	20eat	150	566	9
041513	10:45	984	zabe	151	5812	zabe
041513	10:45	984	9zabe	152	1876	5
041513	10:45	984	baby	153	3326	baby
041513	10:45	984	15baby	154	3664	9
041513	10:45	984	zafe	155	2795	zafe
041513	10:45	984	9zafe	156	1106	5
041513	10:45	984	bowl	157	8020	bowl
041513	10:45	984	17bowl	158	804	5
041513	10:45	984	pom	159	2656	pom
041513	10:45	984	22pom	160	1053	5
041513	10:45	984	joom	161	3697	joom
041513	10:45	984	11joom	162	604	5
041513	10:45	984	kige	163	1865	kige
041513	10:45	984	24kige	164	1325	5
041513	10:45	984	kabe	165	2006	kabe
041513	10:45	984	2kabe	166	1220	5
041513	10:45	984	seat	167	1857	seat
041513	10:45	984	20seat	168	1229	5
041513	10:45	984	vape	169	3465	vape
041513	10:45	984	2vape	170	1437	5
041513	10:45	984	dlip	171	5386	dlip
041513	10:45	984	6dlip	172	594	5
041513	10:45	984	fear	173	5487	fear
041513	10:45	984	21fear	174	1564	5
041513	10:45	984	song	175	2299	song
041513	10:45	984	18song	176	1229	5
041513	10:45	984	lip	177	1977	lip
041513	10:45	984	22lip	178	1424	5
041513	10:45	984	melb	179	1749	melb
041513	10:45	984	4melb	180	573	5
041513	10:45	984	nuad	181	3444	nuad
041513	10:45	984	24nuad	182	1201	5
041513	10:45	984	hil	183	3126	hil
041513	10:45	984	10hil	184	3608	5
041513	10:45	984	jip	185	3670	jip
041513	10:45	984	22jip	186	810	5
041513	10:45	984	anay	187	3279	anay
041513	10:45	984	5anay	188	882	5
041513	10:45	984	lust	189	2037	lust
041513	10:45	984	12lust	190	1218	5
041513	10:45	984	tez	191	3390	tez
041513	10:45	984	8tez	192	1182	5
041513	10:45	984	yame	193	2036	yame
041513	10:45	984	5yame	194	585	5
041513	10:45	984	name	195	2207	name
041513	10:45	984	17name	196	630	5
041513	10:45	984	dawn	197	2409	dawn
041513	10:45	984	14dawn	198	1263	5
041513	10:45	984	sun	199	1674	sun
041513	10:45	984	19sun	200	830	5
041513	10:45	984	arm	201	9193	arm
041513	10:45	984	14arm	202	939	5
041513	10:45	984	pobe	203	2027	pobe
041513	10:45	984	1pobe	204	984	5
041513	10:45	984	fish	205	1926	fish
041513	10:45	984	16fish	206	1287	5
041513	10:45	984	lids	207	2145	lids
041513	10:45	984	12lids	208	697	5
041513	10:45	984	zest	209	6699	zest
041513	10:45	984	20zest	210	1831	5
041513	10:45	984	celm	211	3755	celm
041513	10:45	984	24celm	212	1324	5
041513	10:45	984	yip	213	5509	yip
041513	10:45	984	22yip	214	1640	6
041513	10:45	984	noon	215	2188	noon
041513	10:45	984	23noon	216	1107	5
041513	10:45	984	cell	217	1605	cell
041513	10:45	984	13cell	218	1723	5
041513	10:45	984	air	219	3500	air
041513	10:45	984	16air	220	4759	5
041513	10:45	984	veed	221	2831	veed
041513	10:45	984	9veed	222	1948	5
041513	10:45	984	wife	223	2188	wife
041513	10:45	984	14wife	224	595	5
041513	10:45	984	waf	225	3568	waf
041513	10:45	984	8waf	226	529	5
041513	10:45	984	lim	227	1801	lim
041513	10:45	984	10lim	228	1047	5
041513	10:45	984	liar	229	2002	liar
041513	10:45	984	12liar	230	1217	5
041513	10:45	984	bed	231	1669	bed
041513	10:45	984	21bed	232	1385	9
041513	10:45	984	star	233	1991	star
041513	10:45	984	21star	234	575	5
041513	10:45	984	clim	235	4389	clim
041513	10:45	984	6clim	236	581	5
041513	10:45	984	alfi	237	1835	alfi
041513	10:45	984	4alfi	238	520	5
041513	10:45	984	fat	239	2304	fat
041513	10:45	984	21fat	240	579	5
041513	11:26	648	speed	1	2508	27
041513	11:26	648	error	2	2344	100
041513	11:26	648	whichhand	3	13080	right
041513	11:26	648	yane	1	17938	yane
041513	11:26	648	5yane	2	7472	1
041513	11:26	648	army	3	5565	army
041513	11:26	648	13army	4	7374	7
041513	11:26	648	beeg	5	5950	beeg
041513	11:26	648	9beeg	6	3552	8
041513	11:26	648	lion	7	4984	lion
041513	11:26	648	23lion	8	1784	8
041513	11:26	648	taxe	9	6519	taxe
041513	11:26	648	8taxe	10	4034	5
041513	11:26	648	pest	11	5911	pest
041513	11:26	648	14pest	12	3826	7
041513	11:26	648	sour	13	4215	sour
041513	11:26	648	18sour	14	3862	8
041513	11:26	648	jame	15	7721	jame
041513	11:26	648	5jame	16	7117	9
041513	11:26	648	ugly	17	3320	ugly
041513	11:26	648	19ugly	18	1330	8
041513	11:26	648	mom	19	3115	mom
041513	11:26	648	23mom	20	901	6
041513	11:26	648	lake	21	4206	lake
041513	11:26	648	16lake	22	2253	7
041513	11:26	648	bees	23	4625	bees
041513	11:26	648	21bees	24	3375	7
041513	11:26	648	nip	25	3879	nip
041513	11:26	648	22nip	26	1922	6
041513	11:26	648	nop	27	4291	nop
041513	11:26	648	10nop	28	1182	5
041513	11:26	648	blue	29	4109	blue
041513	11:26	648	18blue	30	1359	8
041513	11:26	648	cold	31	4031	cold
041513	11:26	648	19cold	32	2732	8
041513	11:26	648	lice	33	4005	lice
041513	11:26	648	13lice	34	2492	7
041513	11:26	648	dax	35	4830	dax
041513	11:26	648	8dax	36	1876	5
041513	11:26	648	plin	37	5791	plin
041513	11:26	648	10plin	38	1903	3
041513	11:26	648	lump	39	4721	lump
041513	11:26	648	23lump	40	2515	5
041513	11:26	648	win	41	4285	win
041513	11:26	648	18win	42	1192	8
041513	11:26	648	jabe	43	3846	jabe
041513	11:26	648	2jabe	44	1675	7
041513	11:26	648	yofe	45	3695	yofe
041513	11:26	648	1yofe	46	2977	3
041513	11:26	648	soob	47	3968	soob
041513	11:26	648	7soob	48	1096	5
041513	11:26	648	slap	49	3642	slap
041513	11:26	648	16slap	50	1047	6
041513	11:26	648	nobe	51	3458	nobe
041513	11:26	648	1nobe	52	1342	5
041513	11:26	648	frog	53	5334	frog
041513	11:26	648	15frog	54	2368	6
041513	11:26	648	more	55	8599	more
041513	11:26	648	12more	56	1440	7
041513	11:26	648	hide	57	3565	hide
041513	11:26	648	13hide	58	1181	8
041513	11:26	648	peka	59	5163	peka
041513	11:26	648	4peka	60	1164	5
041513	11:26	648	scar	61	5290	scar
041513	11:26	648	20scar	62	1518	6
041513	11:26	648	cow	63	3160	cow
041513	11:26	648	16cow	64	648	7
041513	11:26	648	pems	65	4259	pems
041513	11:26	648	4pems	66	1832	5
041513	11:26	648	yeet	67	4684	yeet
041513	11:26	648	3yeet	68	1608	5
041513	11:26	648	sad	69	4934	sad
041513	11:26	648	20sad	70	6191	7
041513	11:26	648	wish	71	6063	wish
041513	11:26	648	17wish	72	2420	7
041513	11:26	648	lik	73	3873	lik
041513	11:26	648	11lik	74	2125	6
041513	11:26	648	jobe	75	4158	jobe
041513	11:26	648	1jobe	76	2591	6
041513	11:26	648	voom	77	4573	voom
041513	11:26	648	7voom	78	2270	7
041513	11:26	648	tage	79	5561	tage
041513	11:26	648	9tage	80	2473	6
041513	11:26	648	yate	81	5853	yate
041513	11:26	648	2yate	82	5155	6
041513	11:26	648	yoop	83	4532	yoop
041513	11:26	648	11yoop	84	1477	5
041513	11:26	648	tutk	85	4400	tutk
041513	11:26	648	5tutk	86	2167	2
041513	11:26	648	life	87	3438	life
041513	11:26	648	12life	88	1164	9
041513	11:26	648	woem	89	4955	woem
041513	11:26	648	4woem	90	732	1
041513	11:26	648	silk	91	3844	silk
041513	11:26	648	19silk	92	1601	6
041513	11:26	648	slin	93	3919	slin
041513	11:26	648	6slin	94	1225	5
041513	11:26	648	hay	95	3430	hay
041513	11:26	648	17hay	96	1411	7
041513	11:26	648	tove	97	4632	tove
041513	11:26	648	3tove	98	1510	4
041513	11:26	648	voke	99	4215	voke
041513	11:26	648	6voke	100	2494	4
041513	11:26	648	pill	101	11767	pill
041513	11:26	648	23pill	102	2235	5
041513	11:26	648	nofe	103	4695	nofe
041513	11:26	648	1nofe	104	1594	3
041513	11:26	648	jufe	105	4968	jufe
041513	11:26	648	24jufe	106	1841	3
041513	11:26	648	girl	107	3732	girl
041513	11:26	648	17girl	108	942	8
041513	11:26	648	neeb	109	4350	neeb
041513	11:26	648	3neeb	110	3511	4
041513	11:26	648	foof	111	3649	foof
041513	11:26	648	7foof	112	1694	4
041513	11:26	648	flin	113	4616	flin
041513	11:26	648	6flin	114	1190	3
041513	11:26	648	meef	115	5341	meef
041513	11:26	648	3meef	116	1471	4
041513	11:26	648	lool	117	3986	lool
041513	11:26	648	11lool	118	1105	5
041513	11:26	648	wasp	119	4467	wasp
041513	11:26	648	15wasp	120	1287	4
041513	11:26	648	tomb	121	3658	tomb
041513	11:26	648	19tomb	122	1454	5
041513	11:26	648	mafe	123	3466	mafe
041513	11:26	648	2mafe	124	1542	4
041513	11:26	648	snob	125	3726	snob
041513	11:26	648	18snob	126	1504	1
041513	11:26	648	voop	127	3618	voop
041513	11:26	648	7voop	128	1416	3
041513	11:26	648	pluk	129	4453	pluk
041513	11:26	648	10pluk	130	1322	5
041513	11:26	648	obey	131	4227	obey
041513	11:26	648	14obey	132	1641	4
041513	11:26	648	wac	133	5069	wac
041513	11:26	648	8wac	134	1178	5
041513	11:26	648	bath	135	3336	bath
041513	11:26	648	15bath	136	1386	9
041513	11:26	648	leel	137	3312	leel
041513	11:26	648	3leel	138	1506	5
041513	11:26	648	aqil	139	6827	aqil
041513	11:26	648	24aqil	140	1130	5
041513	11:26	648	nilo	141	4202	nilo
041513	11:26	648	11nilo	142	3457	5
041513	11:26	648	nude	143	3534	nude
041513	11:26	648	13nude	144	2175	6
041513	11:26	648	soog	145	3374	soog
041513	11:26	648	7soog	146	1782	3
041513	11:26	648	cute	147	4180	cute
041513	11:26	648	15cute	148	1300	9
041513	11:26	648	eat	149	3550	eat
041513	11:26	648	20eat	150	1094	9
041513	11:26	648	zabe	151	5344	zabe
041513	11:26	648	9zabe	152	834	5
041513	11:26	648	baby	153	4270	baby
041513	11:26	648	15baby	154	834	6
041513	11:26	648	zafe	155	5030	zafe
041513	11:26	648	9zafe	156	1204	5
041513	11:26	648	bowl	157	3786	bowl
041513	11:26	648	17bowl	158	2073	7
041513	11:26	648	pom	159	4429	pom
041513	11:26	648	22pom	160	1442	5
041513	11:26	648	joom	161	4190	joom
041513	11:26	648	11joom	162	1454	5
041513	11:26	648	kige	163	4089	kige
041513	11:26	648	24kige	164	2861	5
041513	11:26	648	kabe	165	3937	kabe
041513	11:26	648	2kabe	166	1282	4
041513	11:26	648	seat	167	3421	seat
041513	11:26	648	20seat	168	1051	6
041513	11:26	648	vape	169	4134	vape
041513	11:26	648	2vape	170	1040	5
041513	11:26	648	dlip	171	10348	dlip
041513	11:26	648	6dlip	172	1223	3
041513	11:26	648	fear	173	3412	fear
041513	11:26	648	21fear	174	921	3
041513	11:26	648	song	175	3387	song
041513	11:26	648	18song	176	754	9
041513	11:26	648	lip	177	3442	lip
041513	11:26	648	22lip	178	1063	9
041513	11:26	648	melb	179	4089	melb
041513	11:26	648	4melb	180	1237	4
041513	11:26	648	nuad	181	4202	nuad
041513	11:26	648	24nuad	182	1193	1
041513	11:26	648	hil	183	4231	hil
041513	11:26	648	10hil	184	1252	5
041513	11:26	648	jip	185	6736	jip
041513	11:26	648	22jip	186	1875	4
041513	11:26	648	anay	187	7590	anay
041513	11:26	648	5anay	188	1278	5
041513	11:26	648	lust	189	3617	lust
041513	11:26	648	12lust	190	1023	7
041513	11:26	648	tez	191	4044	tez
041513	11:26	648	8tez	192	937	5
041513	11:26	648	yame	193	3577	yame
041513	11:26	648	5yame	194	1129	4
041513	11:26	648	name	195	3081	name
041513	11:26	648	17name	196	1052	6
041513	11:26	648	dawn	197	3224	dawn
041513	11:26	648	14dawn	198	1014	7
041513	11:26	648	sun	199	4090	sun
041513	11:26	648	19sun	200	766	8
041513	11:26	648	arm	201	3124	arm
041513	11:26	648	14arm	202	919	6
041513	11:26	648	pobe	203	3495	pobe
041513	11:26	648	1pobe	204	626	5
041513	11:26	648	fish	205	3439	fish
041513	11:26	648	16fish	206	1244	5
041513	11:26	648	lids	207	3704	lids
041513	11:26	648	12lids	208	1099	6
041513	11:26	648	zest	209	5012	zest
041513	11:26	648	20zest	210	1395	6
041513	11:26	648	celm	211	4008	celm
041513	11:26	648	24celm	212	1462	4
041513	11:26	648	yip	213	4298	yip
041513	11:26	648	22yip	214	933	5
041513	11:26	648	noon	215	3877	noon
041513	11:26	648	23noon	216	1041	7
041513	11:26	648	cell	217	3493	cell
041513	11:26	648	13cell	218	895	1
041513	11:26	648	air	219	2897	air
041513	11:26	648	16air	220	956	7
041513	11:26	648	veed	221	3755	veed
041513	11:26	648	9veed	222	980	5
041513	11:26	648	wife	223	4346	wife
041513	11:26	648	14wife	224	787	9
041513	11:26	648	waf	225	4065	waf
041513	11:26	648	8waf	226	1686	5
041513	11:26	648	lim	227	3736	lim
041513	11:26	648	10lim	228	874	5
041513	11:26	648	liar	229	3060	liar
041513	11:26	648	12liar	230	1239	3
041513	11:26	648	bed	231	3501	bed
041513	11:26	648	21bed	232	743	9
041513	11:26	648	star	233	3823	star
041513	11:26	648	21star	234	989	7
041513	11:26	648	clim	235	4083	clim
041513	11:26	648	6clim	236	847	5
041513	11:26	648	alfi	237	3859	alfi
041513	11:26	648	4alfi	238	1207	4
041513	11:26	648	fat	239	3372	fat
041513	11:26	648	21fat	240	773	1
041713	11:02	987	speed	1	3944	69
041713	11:02	987	error	2	1756	100
041713	11:02	987	whichhand	3	13908	Right
041713	11:02	987	yane	1	5308	yane
041713	11:02	987	5yane	2	3783	5
041713	11:02	987	army	3	6143	army
041713	11:02	987	13army	4	8568	4
041713	11:02	987	beeg	5	4954	beeg
041713	11:02	987	9beeg	6	8394	4
041713	11:02	987	lion	7	4339	lion
041713	11:02	987	23lion	8	3917	7
041713	11:02	987	taxe	9	3303	taxe
041713	11:02	987	8taxe	10	4337	3
041713	11:02	987	pest	11	3403	pest
041713	11:02	987	14pest	12	1137	1
041713	11:02	987	sour	13	2906	sour
041713	11:02	987	18sour	14	1196	3
041713	11:02	987	jame	15	4938	jame
041713	11:02	987	5jame	16	1164	5
041713	11:02	987	ugly	17	2771	ugly
041713	11:02	987	19ugly	18	547	1
041713	11:02	987	mom	19	3674	mom
041713	11:02	987	23mom	20	1070	8
041713	11:02	987	lake	21	2921	lake
041713	11:02	987	16lake	22	3571	9
041713	11:02	987	bees	23	2795	bees
041713	11:02	987	21bees	24	1737	2
041713	11:02	987	nip	25	3306	nip
041713	11:02	987	22nip	26	2236	4
041713	11:02	987	nop	27	2937	nop
041713	11:02	987	10nop	28	890	5
041713	11:02	987	blue	29	3220	blue
041713	11:02	987	18blue	30	2698	7
041713	11:02	987	cold	31	2469	cold
041713	11:02	987	19cold	32	856	1
041713	11:02	987	lice	33	3380	lice
041713	11:02	987	13lice	34	787	1
041713	11:02	987	dax	35	2385	dax
041713	11:02	987	8dax	36	2760	5
041713	11:02	987	plin	37	3792	plin
041713	11:02	987	10plin	38	855	4
041713	11:02	987	lump	39	3402	lump
041713	11:02	987	23lump	40	1009	1
041713	11:02	987	win	41	3374	win
041713	11:02	987	18win	42	1023	9
041713	11:02	987	jabe	43	2892	jabe
041713	11:02	987	2jabe	44	1119	5
041713	11:02	987	yofe	45	3296	yofe
041713	11:02	987	1yofe	46	1298	4
041713	11:02	987	soob	47	3308	soob
041713	11:02	987	7soob	48	1087	3
041713	11:02	987	slap	49	2785	slap
041713	11:02	987	16slap	50	848	1
041713	11:02	987	nobe	51	3244	nobe
041713	11:02	987	1nobe	52	696	5
041713	11:02	987	frog	53	2890	frog
041713	11:02	987	15frog	54	1165	6
041713	11:02	987	more	55	2892	more
041713	11:02	987	12more	56	2222	7
041713	11:02	987	hide	57	2980	hide
041713	11:02	987	13hide	58	1091	2
041713	11:02	987	peka	59	3414	peka
041713	11:02	987	4peka	60	2099	5
041713	11:02	987	scar	61	2637	scar
041713	11:02	987	20scar	62	2330	1
041713	11:02	987	cow	63	3003	cow
041713	11:02	987	16cow	64	1209	5
041713	11:02	987	pems	65	2862	pems
041713	11:02	987	4pems	66	786	6
041713	11:02	987	yeet	67	2656	yeet
041713	11:02	987	3yeet	68	973	5
041713	11:02	987	sad	69	2140	sad
041713	11:02	987	20sad	70	669	1
041713	11:02	987	wish	71	3176	wish
041713	11:02	987	17wish	72	1959	7
041713	11:02	987	lik	73	3383	lik
041713	11:02	987	11lik	74	814	5
041713	11:02	987	jobe	75	3491	jobe
041713	11:02	987	1jobe	76	847	5
041713	11:02	987	voom	77	3602	voom
041713	11:02	987	7voom	78	1473	6
041713	11:02	987	tage	79	1900	tage
041713	11:02	987	9tage	80	718	6
041713	11:02	987	yate	81	2759	yate
041713	11:02	987	2yate	82	1375	5
041713	11:02	987	yoop	83	3277	yoop
041713	11:02	987	11yoop	84	2001	3
041713	11:02	987	tutk	85	3159	tutk
041713	11:02	987	5tutk	86	1175	1
041713	11:02	987	life	87	3382	life
041713	11:02	987	12life	88	1253	7
041713	11:02	987	woem	89	3121	woem
041713	11:02	987	4woem	90	947	4
041713	11:02	987	silk	91	3002	silk
041713	11:02	987	19silk	92	1457	8
041713	11:02	987	slin	93	3373	slin
041713	11:02	987	6slin	94	517	5
041713	11:02	987	hay	95	2061	hay
041713	11:02	987	17hay	96	641	5
041713	11:02	987	tove	97	3197	tove
041713	11:02	987	3tove	98	2692	6
041713	11:02	987	voke	99	3439	voke
041713	11:02	987	6voke	100	1364	5
041713	11:02	987	pill	101	3219	pill
041713	11:02	987	23pill	102	969	3
041713	11:02	987	nofe	103	3504	nofe
041713	11:02	987	1nofe	104	2099	4
041713	11:02	987	jufe	105	3324	jufe
041713	11:02	987	24jufe	106	2966	4
041713	11:02	987	girl	107	2646	girl
041713	11:02	987	17girl	108	1403	7
041713	11:02	987	neeb	109	3128	neeb
041713	11:02	987	3neeb	110	754	4
041713	11:02	987	foof	111	3289	foof
041713	11:02	987	7foof	112	1108	6
041713	11:02	987	flin	113	3070	flin
041713	11:02	987	6flin	114	722	6
041713	11:02	987	meef	115	2611	meef
041713	11:02	987	3meef	116	905	5
041713	11:02	987	lool	117	3242	lool
041713	11:02	987	11lool	118	735	6
041713	11:02	987	wasp	119	2719	wasp
041713	11:02	987	15wasp	120	1241	1
041713	11:02	987	tomb	121	2813	tomb
041713	11:02	987	19tomb	122	979	2
041713	11:02	987	mafe	123	2529	mafe
041713	11:02	987	2mafe	124	682	5
041713	11:02	987	snob	125	3316	snob
041713	11:02	987	18snob	126	1622	1
041713	11:02	987	voop	127	3051	voop
041713	11:02	987	7voop	128	983	5
041713	11:02	987	pluk	129	3134	pluk
041713	11:02	987	10pluk	130	1583	3
041713	11:02	987	obey	131	3678	obey
041713	11:02	987	14obey	132	1233	4
041713	11:02	987	wac	133	1990	wac
041713	11:02	987	8wac	134	796	5
041713	11:02	987	bath	135	4170	bath
041713	11:02	987	15bath	136	1522	8
041713	11:02	987	leel	137	3684	leel
041713	11:02	987	3leel	138	1151	6
041713	11:02	987	aqil	139	5606	aqil
041713	11:02	987	24aqil	140	3310	4
041713	11:02	987	nilo	141	3408	nilo
041713	11:02	987	11nilo	142	1047	6
041713	11:02	987	nude	143	3418	nude
041713	11:02	987	13nude	144	1064	7
041713	11:02	987	soog	145	2914	soog
041713	11:02	987	7soog	146	884	4
041713	11:02	987	cute	147	2919	cute
041713	11:02	987	15cute	148	793	7
041713	11:02	987	eat	149	2031	eat
041713	11:02	987	20eat	150	867	8
041713	11:02	987	zabe	151	5702	zabe
041713	11:02	987	9zabe	152	3786	3
041713	11:02	987	baby	153	3873	baby
041713	11:02	987	15baby	154	1061	8
041713	11:02	987	zafe	155	2976	zafe
041713	11:02	987	9zafe	156	2831	4
041713	11:02	987	bowl	157	3404	bowl
041713	11:02	987	17bowl	158	707	5
041713	11:02	987	pom	159	3092	pom
041713	11:02	987	22pom	160	735	6
041713	11:02	987	joom	161	3255	joom
041713	11:02	987	11joom	162	660	5
041713	11:02	987	kige	163	2807	kige
041713	11:02	987	24kige	164	1261	4
041713	11:02	987	kabe	165	3112	kabe
041713	11:02	987	2kabe	166	5050	4
041713	11:02	987	seat	167	2207	seat
041713	11:02	987	20seat	168	869	5
041713	11:02	987	vape	169	3088	vape
041713	11:02	987	2vape	170	811	6
041713	11:02	987	dlip	171	3456	dlip
041713	11:02	987	6dlip	172	1549	2
041713	11:02	987	fear	173	2181	fear
041713	11:02	987	21fear	174	724	1
041713	11:02	987	song	175	3324	song
041713	11:02	987	18song	176	638	7
041713	11:02	987	lip	177	3346	lip
041713	11:02	987	22lip	178	1019	8
041713	11:02	987	melb	179	3576	melb
041713	11:02	987	4melb	180	2935	4
041713	11:02	987	nuad	181	3480	nuad
041713	11:02	987	24nuad	182	2300	5
041713	11:02	987	hil	183	3126	hil
041713	11:02	987	10hil	184	807	5
041713	11:02	987	jip	185	3669	jip
041713	11:02	987	22jip	186	865	3
041713	11:02	987	anay	187	2316	anay
041713	11:02	987	5anay	188	645	4
041713	11:02	987	lust	189	3129	lust
041713	11:02	987	12lust	190	1762	7
041713	11:02	987	tez	191	2169	tez
041713	11:02	987	8tez	192	657	6
041713	11:02	987	yame	193	2588	yame
041713	11:02	987	5yame	194	651	4
041713	11:02	987	name	195	2447	name
041713	11:02	987	17name	196	851	5
041713	11:02	987	dawn	197	2535	dawn
041713	11:02	987	14dawn	198	992	9
041713	11:02	987	sun	199	2182	sun
041713	11:02	987	19sun	200	821	9
041713	11:02	987	arm	201	2322	arm
041713	11:02	987	14arm	202	675	5
041713	11:02	987	pobe	203	3222	pobe
041713	11:02	987	1pobe	204	1908	5
041713	11:02	987	fish	205	3286	fish
041713	11:02	987	16fish	206	729	6
041713	11:02	987	lids	207	4897	lids
041713	11:02	987	12lids	208	3517	5
041713	11:02	987	zest	209	2975	zest
041713	11:02	987	20zest	210	622	7
041713	11:02	987	celm	211	2691	celm
041713	11:02	987	24celm	212	6190	5
041713	11:02	987	yip	213	3446	yip
041713	11:02	987	22yip	214	7563	5
041713	11:02	987	noon	215	3100	noon
041713	11:02	987	23noon	216	735	8
041713	11:02	987	cell	217	2423	cell
041713	11:02	987	13cell	218	597	3
041713	11:02	987	air	219	5338	air
041713	11:02	987	16air	220	900	8
041713	11:02	987	veed	221	2198	veed
041713	11:02	987	9veed	222	2068	5
041713	11:02	987	wife	223	2879	wife
041713	11:02	987	14wife	224	1003	8
041713	11:02	987	waf	225	2008	waf
041713	11:02	987	8waf	226	4214	5
041713	11:02	987	lim	227	2989	lim
041713	11:02	987	10lim	228	827	6
041713	11:02	987	liar	229	2800	liar
041713	11:02	987	12liar	230	982	2
041713	11:02	987	bed	231	2197	bed
041713	11:02	987	21bed	232	667	9
041713	11:02	987	star	233	3054	star
041713	11:02	987	21star	234	1018	8
041713	11:02	987	clim	235	3143	clim
041713	11:02	987	6clim	236	1736	5
041713	11:02	987	alfi	237	3088	alfi
041713	11:02	987	4alfi	238	683	4
041713	11:02	987	fat	239	1733	fat
041713	11:02	987	21fat	240	590	1
041713	11:24	5468	speed	1	2426	45
041713	11:24	5468	error	2	2578	97
041713	11:24	5468	whichhand	3	7680	right
041713	11:24	5468	yane	1	9135	yane
041713	11:24	5468	5yane	2	11234	5
041713	11:24	5468	army	3	3619	army
041713	11:24	5468	13army	4	5688	6
041713	11:24	5468	beeg	5	3476	beeg
041713	11:24	5468	9beeg	6	7224	3
041713	11:24	5468	lion	7	2790	lion
041713	11:24	5468	23lion	8	9629	6
041713	11:24	5468	taxe	9	3053	taxe
041713	11:24	5468	8taxe	10	1569	4
041713	11:24	5468	pest	11	3104	pest
041713	11:24	5468	14pest	12	4155	1
041713	11:24	5468	sour	13	2580	sour
041713	11:24	5468	18sour	14	2162	2
041713	11:24	5468	jame	15	2450	jame
041713	11:24	5468	5jame	16	5774	5
041713	11:24	5468	ugly	17	2222	ugly
041713	11:24	5468	19ugly	18	3012	1
041713	11:24	5468	mom	19	2530	mom
041713	11:24	5468	23mom	20	2179	9
041713	11:24	5468	lake	21	2729	lake
041713	11:24	5468	16lake	22	3162	9
041713	11:24	5468	bees	23	2770	bees
041713	11:24	5468	21bees	24	3458	2
041713	11:24	5468	nip	25	2350	nip
041713	11:24	5468	22nip	26	1174	4
041713	11:24	5468	nop	27	2222	nop
041713	11:24	5468	10nop	28	1803	3
041713	11:24	5468	blue	29	2177	blue
041713	11:24	5468	18blue	30	3112	7
041713	11:24	5468	cold	31	2186	cold
041713	11:24	5468	19cold	32	6616	4
041713	11:24	5468	lice	33	2496	lice
041713	11:24	5468	13lice	34	2810	2
041713	11:24	5468	dax	35	4760	dax
041713	11:24	5468	8dax	36	5944	5
041713	11:24	5468	plin	37	3041	plin
041713	11:24	5468	10plin	38	3422	4
041713	11:24	5468	lump	39	2684	lump
041713	11:24	5468	23lump	40	3855	1
041713	11:24	5468	win	41	2332	win
041713	11:24	5468	18win	42	1309	9
041713	11:24	5468	jabe	43	2231	jabe
041713	11:24	5468	2jabe	44	2371	5
041713	11:24	5468	yofe	45	4867	yofe
041713	11:24	5468	1yofe	46	3407	2
041713	11:24	5468	soob	47	2182	soob
041713	11:24	5468	7soob	48	1189	3
041713	11:24	5468	slap	49	2467	slap
041713	11:24	5468	16slap	50	775	2
041713	11:24	5468	nobe	51	2742	nobe
041713	11:24	5468	1nobe	52	1271	5
041713	11:24	5468	frog	53	2042	frog
041713	11:24	5468	15frog	54	735	6
041713	11:24	5468	more	55	1623	more
041713	11:24	5468	12more	56	884	7
041713	11:24	5468	hide	57	2382	hide
041713	11:24	5468	13hide	58	741	5
041713	11:24	5468	peka	59	2662	peka
041713	11:24	5468	4peka	60	753	3
041713	11:24	5468	scar	61	2209	scar
041713	11:24	5468	20scar	62	462	2
041713	11:24	5468	cow	63	3025	cow
041713	11:24	5468	16cow	64	606	8
041713	11:24	5468	pems	65	1804	pems
041713	11:24	5468	4pems	66	1098	5
041713	11:24	5468	yeet	67	2692	yeet
041713	11:24	5468	3yeet	68	1015	4
041713	11:24	5468	sad	69	1740	sad
041713	11:24	5468	20sad	70	628	1
041713	11:24	5468	wish	71	2257	wish
041713	11:24	5468	17wish	72	845	8
041713	11:24	5468	lik	73	1657	lik
041713	11:24	5468	11lik	74	2180	3
041713	11:24	5468	jobe	75	2307	jobe
041713	11:24	5468	1jobe	76	2493	5
041713	11:24	5468	voom	77	1536	woom
041713	11:24	5468	7voom	78	1632	3
041713	11:24	5468	tage	79	1789	tage
041713	11:24	5468	9tage	80	451	5
041713	11:24	5468	yate	81	2383	yate
041713	11:24	5468	2yate	82	2534	4
041713	11:24	5468	yoop	83	2175	yoop
041713	11:24	5468	11yoop	84	1310	2
041713	11:24	5468	tutk	85	4550	tutk
041713	11:24	5468	5tutk	86	1480	1
041713	11:24	5468	life	87	1723	life
041713	11:24	5468	12life	88	708	9
041713	11:24	5468	woem	89	2605	woem
041713	11:24	5468	4woem	90	2084	3
041713	11:24	5468	silk	91	2814	silk
041713	11:24	5468	19silk	92	500	7
041713	11:24	5468	slin	93	2094	slin
041713	11:24	5468	6slin	94	1104	5
041713	11:24	5468	hay	95	1561	hay
041713	11:24	5468	17hay	96	3520	6
041713	11:24	5468	tove	97	1738	tove
041713	11:24	5468	3tove	98	467	3
041713	11:24	5468	voke	99	4166	voke
041713	11:24	5468	6voke	100	5182	2
041713	11:24	5468	pill	101	1918	pill
041713	11:24	5468	23pill	102	479	4
041713	11:24	5468	nofe	103	2034	nofe
041713	11:24	5468	1nofe	104	518	4
041713	11:24	5468	jufe	105	2695	jufe
041713	11:24	5468	24jufe	106	610	4
041713	11:24	5468	girl	107	1991	girl
041713	11:24	5468	17girl	108	725	9
041713	11:24	5468	neeb	109	2742	neeb
041713	11:24	5468	3neeb	110	1118	5
041713	11:24	5468	foof	111	1776	foof
041713	11:24	5468	7foof	112	1086	2
041713	11:24	5468	flin	113	1905	flin
041713	11:24	5468	6flin	114	643	3
041713	11:24	5468	meef	115	1910	meef
041713	11:24	5468	3meef	116	1408	3
041713	11:24	5468	lool	117	2918	lool
041713	11:24	5468	11lool	118	559	5
041713	11:24	5468	wasp	119	3622	wasp
041713	11:24	5468	15wasp	120	692	1
041713	11:24	5468	tomb	121	2023	tomb
041713	11:24	5468	19tomb	122	740	2
041713	11:24	5468	mafe	123	1700	mafe
041713	11:24	5468	2mafe	124	550	3
041713	11:24	5468	snob	125	1838	snob
041713	11:24	5468	18snob	126	395	1
041713	11:24	5468	voop	127	4336	voop
041713	11:24	5468	7voop	128	1409	3
041713	11:24	5468	pluk	129	2758	pluk
041713	11:24	5468	10pluk	130	2430	4
041713	11:24	5468	obey	131	2859	obey
041713	11:24	5468	14obey	132	583	5
041713	11:24	5468	wac	133	2421	wac
041713	11:24	5468	8wac	134	1787	3
041713	11:24	5468	bath	135	1569	bath
041713	11:24	5468	15bath	136	825	9
041713	11:24	5468	leel	137	2518	leel
041713	11:24	5468	3leel	138	2615	5
041713	11:24	5468	aqil	139	6260	aqil
041713	11:24	5468	24aqil	140	2706	4
041713	11:24	5468	nilo	141	2412	nilo
041713	11:24	5468	11nilo	142	1009	5
041713	11:24	5468	nude	143	2654	nude
041713	11:24	5468	13nude	144	1467	6
041713	11:24	5468	soog	145	1622	soog
041713	11:24	5468	7soog	146	1148	4
041713	11:24	5468	cute	147	3179	cute
041713	11:24	5468	15cute	148	2578	9
041713	11:24	5468	eat	149	1433	eat
041713	11:24	5468	20eat	150	678	9
041713	11:24	5468	zabe	151	2096	zabe
041713	11:24	5468	9zabe	152	642	4
041713	11:24	5468	baby	153	1646	baby
041713	11:24	5468	15baby	154	602	9
041713	11:24	5468	zafe	155	2256	zafe
041713	11:24	5468	9zafe	156	604	4
041713	11:24	5468	bowl	157	2250	bowl
041713	11:24	5468	17bowl	158	430	6
041713	11:24	5468	pom	159	2002	pom
041713	11:24	5468	22pom	160	512	5
041713	11:24	5468	joom	161	2009	joom
041713	11:24	5468	11joom	162	375	4
041713	11:24	5468	kige	163	1805	kige
041713	11:24	5468	24kige	164	379	4
041713	11:24	5468	kabe	165	2345	kabe
041713	11:24	5468	2kabe	166	602	6
041713	11:24	5468	seat	167	1655	seat
041713	11:24	5468	20seat	168	443	6
041713	11:24	5468	vape	169	2551	vape
041713	11:24	5468	2vape	170	583	4
041713	11:24	5468	dlip	171	2413	dlip
041713	11:24	5468	6dlip	172	931	3
041713	11:24	5468	fear	173	1499	fear
041713	11:24	5468	21fear	174	477	2
041713	11:24	5468	song	175	2111	song
041713	11:24	5468	18song	176	593	9
041713	11:24	5468	lip	177	2183	lip
041713	11:24	5468	22lip	178	502	6
041713	11:24	5468	melb	179	4327	melb
041713	11:24	5468	4melb	180	441	4
041713	11:24	5468	nuad	181	2461	nuad
041713	11:24	5468	24nuad	182	505	3
041713	11:24	5468	hil	183	2074	hil
041713	11:24	5468	10hil	184	862	5
041713	11:24	5468	jip	185	1809	jip
041713	11:24	5468	22jip	186	374	4
041713	11:24	5468	anay	187	1629	anay
041713	11:24	5468	5anay	188	713	4
041713	11:24	5468	lust	189	1938	lust
041713	11:24	5468	12lust	190	379	7
041713	11:24	5468	tez	191	1953	tez
041713	11:24	5468	8tez	192	1041	3
041713	11:24	5468	yame	193	1830	yame
041713	11:24	5468	5yame	194	482	4
041713	11:24	5468	name	195	2316	name
041713	11:24	5468	17name	196	486	8
041713	11:24	5468	dawn	197	3744	dawn
041713	11:24	5468	14dawn	198	449	6
041713	11:24	5468	sun	199	1540	sun
041713	11:24	5468	19sun	200	437	9
041713	11:24	5468	arm	201	1473	arm
041713	11:24	5468	14arm	202	556	6
041713	11:24	5468	pobe	203	2508	pobe
041713	11:24	5468	1pobe	204	614	5
041713	11:24	5468	fish	205	2779	fish
041713	11:24	5468	16fish	206	426	7
041713	11:24	5468	lids	207	1790	lids
041713	11:24	5468	12lids	208	373	5
041713	11:24	5468	zest	209	2396	zest
041713	11:24	5468	20zest	210	394	6
041713	11:24	5468	celm	211	2952	celm
041713	11:24	5468	24celm	212	448	4
041713	11:24	5468	yip	213	2476	yip
041713	11:24	5468	22yip	214	590	3
041713	11:24	5468	noon	215	1453	noon
041713	11:24	5468	23noon	216	624	8
041713	11:24	5468	cell	217	1589	cell
041713	11:24	5468	13cell	218	492	6
041713	11:24	5468	air	219	4054	air
041713	11:24	5468	16air	220	411	9
041713	11:24	5468	veed	221	1824	veed
041713	11:24	5468	9veed	222	429	4
041713	11:24	5468	wife	223	2585	wife
041713	11:24	5468	14wife	224	872	8
041713	11:24	5468	waf	225	1963	waf
041713	11:24	5468	8waf	226	387	4
041713	11:24	5468	lim	227	1705	lim
041713	11:24	5468	10lim	228	427	4
041713	11:24	5468	liar	229	2071	liar
041713	11:24	5468	12liar	230	370	1
041713	11:24	5468	bed	231	1465	bed
041713	11:24	5468	21bed	232	564	9
041713	11:24	5468	star	233	1851	star
041713	11:24	5468	21star	234	495	8
041713	11:24	5468	clim	235	2001	clim
041713	11:24	5468	6clim	236	399	5
041713	11:24	5468	alfi	237	2165	alfi
041713	11:24	5468	4alfi	238	364	4
041713	11:24	5468	fat	239	1379	fat
041713	11:24	5468	21fat	240	513	2
042213	10:02	894	speed	1	2328	51
042213	10:02	894	error	2	2056	98
042213	10:02	894	whichhand	3	11055	Left
042213	10:02	894	yane	1	2967	yane
042213	10:02	894	5yane	2	5557	5
042213	10:02	894	army	3	2433	army
042213	10:02	894	13army	4	1481	3
042213	10:02	894	beeg	5	3440	beeg
042213	10:02	894	9beeg	6	1635	4
042213	10:02	894	lion	7	2546	lion
042213	10:02	894	23lion	8	1199	5
042213	10:02	894	taxe	9	3448	taxe
042213	10:02	894	8taxe	10	1193	2
042213	10:02	894	pest	11	4082	pest
042213	10:02	894	14pest	12	2546	3
042213	10:02	894	sour	13	2134	sour
042213	10:02	894	18sour	14	1540	6
042213	10:02	894	jame	15	2112	jame
042213	10:02	894	5jame	16	686	7
042213	10:02	894	ugly	17	3011	ugly
042213	10:02	894	19ugly	18	654	4
042213	10:02	894	mom	19	1845	mom
042213	10:02	894	23mom	20	1605	7
042213	10:02	894	lake	21	2375	lake
042213	10:02	894	16lake	22	2570	7
042213	10:02	894	bees	23	2891	bees
042213	10:02	894	21bees	24	1034	5
042213	10:02	894	nip	25	2667	nip
042213	10:02	894	22nip	26	875	7
042213	10:02	894	nop	27	2209	nop
042213	10:02	894	10nop	28	636	4
042213	10:02	894	blue	29	4392	blue
042213	10:02	894	18blue	30	1695	5
042213	10:02	894	cold	31	1676	cold
042213	10:02	894	19cold	32	1907	4
042213	10:02	894	lice	33	1864	lice
042213	10:02	894	13lice	34	528	5
042213	10:02	894	dax	35	1980	dax
042213	10:02	894	8dax	36	1559	6
042213	10:02	894	plin	37	2018	plin
042213	10:02	894	10plin	38	1148	6
042213	10:02	894	lump	39	2727	lump
042213	10:02	894	23lump	40	892	4
042213	10:02	894	win	41	1777	win
042213	10:02	894	18win	42	1244	8
042213	10:02	894	jabe	43	2284	jabe
042213	10:02	894	2jabe	44	1027	4
042213	10:02	894	yofe	45	2555	yofe
042213	10:02	894	1yofe	46	4032	5
042213	10:02	894	soob	47	3208	soob
042213	10:02	894	7soob	48	1067	5
042213	10:02	894	slap	49	3114	slap
042213	10:02	894	16slap	50	736	6
042213	10:02	894	nobe	51	2060	nobe
042213	10:02	894	1nobe	52	1604	5
042213	10:02	894	frog	53	1861	frog
042213	10:02	894	15frog	54	709	7
042213	10:02	894	more	55	1538	more
042213	10:02	894	12more	56	615	7
042213	10:02	894	hide	57	1735	hide
042213	10:02	894	13hide	58	964	6
042213	10:02	894	peka	59	4758	peka
042213	10:02	894	4peka	60	932	4
042213	10:02	894	scar	61	1911	scar
042213	10:02	894	20scar	62	638	7
042213	10:02	894	cow	63	1501	cow
042213	10:02	894	16cow	64	540	6
042213	10:02	894	pems	65	1687	pems
042213	10:02	894	4pems	66	1343	7
042213	10:02	894	yeet	67	3185	yeet
042213	10:02	894	3yeet	68	670	4
042213	10:02	894	sad	69	1683	sad
042213	10:02	894	20sad	70	883	3
042213	10:02	894	wish	71	1560	wish
042213	10:02	894	17wish	72	637	6
042213	10:02	894	lik	73	1539	lik
042213	10:02	894	11lik	74	2578	7
042213	10:02	894	jobe	75	2235	jobe
042213	10:02	894	1jobe	76	2597	5
042213	10:02	894	voom	77	5031	voom
042213	10:02	894	7voom	78	434	3
042213	10:02	894	tage	79	1648	tage
042213	10:02	894	9tage	80	994	4
042213	10:02	894	yate	81	1690	yate
042213	10:02	894	2yate	82	1610	6
042213	10:02	894	yoop	83	2314	yoop
042213	10:02	894	11yoop	84	849	3
042213	10:02	894	tutk	85	3543	tutk
042213	10:02	894	5tutk	86	637	3
042213	10:02	894	life	87	2044	life
042213	10:02	894	12life	88	1325	8
042213	10:02	894	woem	89	1986	woem
042213	10:02	894	4woem	90	653	6
042213	10:02	894	silk	91	2052	silk
042213	10:02	894	19silk	92	1045	5
042213	10:02	894	slin	93	1571	slin
042213	10:02	894	6slin	94	920	6
042213	10:02	894	hay	95	1484	hay
042213	10:02	894	17hay	96	739	6
042213	10:02	894	tove	97	2087	tove
042213	10:02	894	3tove	98	1071	6
042213	10:02	894	voke	99	1692	voke
042213	10:02	894	6voke	100	988	7
042213	10:02	894	pill	101	1749	pill
042213	10:02	894	23pill	102	978	4
042213	10:02	894	nofe	103	1782	nofe
042213	10:02	894	1nofe	104	1102	6
042213	10:02	894	jufe	105	3579	jufe
042213	10:02	894	24jufe	106	1152	2
042213	10:02	894	girl	107	2346	girl
042213	10:02	894	17girl	108	2199	7
042213	10:02	894	neeb	109	2168	neeb
042213	10:02	894	3neeb	110	1885	4
042213	10:02	894	foof	111	2274	foof
042213	10:02	894	7foof	112	499	5
042213	10:02	894	flin	113	1616	flin
042213	10:02	894	6flin	114	706	5
042213	10:02	894	meef	115	1775	meef
042213	10:02	894	3meef	116	3435	4
042213	10:02	894	lool	117	1835	lool
042213	10:02	894	11lool	118	1189	6
042213	10:02	894	wasp	119	3214	wasp
042213	10:02	894	15wasp	120	1321	4
042213	10:02	894	tomb	121	3293	tomb
042213	10:02	894	19tomb	122	3253	6
042213	10:02	894	mafe	123	2692	mafe
042213	10:02	894	2mafe	124	875	6
042213	10:02	894	snob	125	1626	snob
042213	10:02	894	18snob	126	868	3
042213	10:02	894	voop	127	2307	voop
042213	10:02	894	7voop	128	1361	3
042213	10:02	894	pluk	129	2131	pluk
042213	10:02	894	10pluk	130	3529	4
042213	10:02	894	obey	131	2309	obey
042213	10:02	894	14obey	132	2844	7
042213	10:02	894	wac	133	2187	wac
042213	10:02	894	8wac	134	823	3
042213	10:02	894	bath	135	1895	bath
042213	10:02	894	15bath	136	2254	6
042213	10:02	894	leel	137	2205	leel
042213	10:02	894	3leel	138	911	6
042213	10:02	894	aqil	139	5532	aqil
042213	10:02	894	24aqil	140	1443	3
042213	10:02	894	nilo	141	2209	nilo
042213	10:02	894	11nilo	142	1684	5
042213	10:02	894	nude	143	2002	nude
042213	10:02	894	13nude	144	965	7
042213	10:02	894	soog	145	1504	soog
042213	10:02	894	7soog	146	798	6
042213	10:02	894	cute	147	1495	cute
042213	10:02	894	15cute	148	686	7
042213	10:02	894	eat	149	1259	eat
042213	10:02	894	20eat	150	916	7
042213	10:02	894	zabe	151	2455	zabe
042213	10:02	894	9zabe	152	1777	3
042213	10:02	894	baby	153	3930	baby
042213	10:02	894	15baby	154	1113	4
042213	10:02	894	zafe	155	2373	zafe
042213	10:02	894	9zafe	156	2378	4
042213	10:02	894	bowl	157	3578	bowl
042213	10:02	894	17bowl	158	584	7
042213	10:02	894	pom	159	2161	pom
042213	10:02	894	22pom	160	1238	4
042213	10:02	894	joom	161	1605	joom
042213	10:02	894	11joom	162	1680	5
042213	10:02	894	kige	163	1981	kige
042213	10:02	894	24kige	164	1128	3
042213	10:02	894	kabe	165	3053	kabe
042213	10:02	894	2kabe	166	1094	3
042213	10:02	894	seat	167	1651	seat
042213	10:02	894	20seat	168	739	7
042213	10:02	894	vape	169	2607	vape
042213	10:02	894	2vape	170	905	4
042213	10:02	894	dlip	171	2133	dlip
042213	10:02	894	6dlip	172	1987	4
042213	10:02	894	fear	173	1638	fear
042213	10:02	894	21fear	174	4423	6
042213	10:02	894	song	175	1753	song
042213	10:02	894	18song	176	926	7
042213	10:02	894	lip	177	2474	lip
042213	10:02	894	22lip	178	450	6
042213	10:02	894	melb	179	1968	melb
042213	10:02	894	4melb	180	813	7
042213	10:02	894	nuad	181	2397	nuad
042213	10:02	894	24nuad	182	793	2
042213	10:02	894	hil	183	1898	hil
042213	10:02	894	10hil	184	1081	3
