date	time	subject	trialcode	trialnum	latency	response
020413	10:02	516	speed	1	3285	31
020413	10:02	516	error	2	2571	96
020413	10:02	516	whichhand	3	48377	left
020413	10:02	516	yane	1	10336	yane
020413	10:02	516	5yane	2	12557	4
020413	10:02	516	army	3	4536	army
020413	10:02	516	13army	4	1777	7
020413	10:02	516	beeg	5	5488	beeg
020413	10:02	516	9beeg	6	3028	5
020413	10:02	516	lion	7	3928	lion
020413	10:02	516	23lion	8	2642	3
020413	10:02	516	taxe	9	4918	taxe
020413	10:02	516	8taxe	10	4032	3
020413	10:02	516	pest	11	3718	pest
020413	10:02	516	14pest	12	872	2
020413	10:02	516	sour	13	4979	sour
020413	10:02	516	18sour	14	6882	4
020413	10:02	516	jame	15	7494	jame
020413	10:02	516	5jame	16	4554	4
020413	10:02	516	ugly	17	4323	ugly
020413	10:02	516	19ugly	18	2285	2
020413	10:02	516	mom	19	3248	mom
020413	10:02	516	23mom	20	877	9
020413	10:02	516	lake	21	3606	lake
020413	10:02	516	16lake	22	637	8
020413	10:02	516	bees	23	2961	bees
020413	10:02	516	21bees	24	4273	1
020413	10:02	516	nip	25	3309	nip
020413	10:02	516	22nip	26	631	4
020413	10:02	516	nop	27	3483	nop
020413	10:02	516	10nop	28	638	5
020413	10:02	516	blue	29	4058	blue
020413	10:02	516	18blue	30	1455	8
020413	10:02	516	cold	31	2891	cold
020413	10:02	516	19cold	32	1782	4
020413	10:02	516	lice	33	3996	lice
020413	10:02	516	13lice	34	579	1
020413	10:02	516	dax	35	3089	dax
020413	10:02	516	8dax	36	3548	5
020413	10:02	516	plin	37	5868	plin
020413	10:02	516	10plin	38	2993	5
020413	10:02	516	lump	39	3439	lump
020413	10:02	516	23lump	40	1748	3
020413	10:02	516	win	41	4628	win
020413	10:02	516	18win	42	858	9
020413	10:02	516	jabe	43	4773	jabe
020413	10:02	516	2jabe	44	4062	4
020413	10:02	516	yofe	45	5665	yofe
020413	10:02	516	1yofe	46	3926	5
020413	10:02	516	soob	47	3687	soob
020413	10:02	516	7soob	48	2907	4
020413	10:02	516	slap	49	3060	slap
020413	10:02	516	16slap	50	1272	3
020413	10:02	516	nobe	51	4787	nobe
020413	10:02	516	1nobe	52	1747	5
020413	10:02	516	frog	53	3211	frog
020413	10:02	516	15frog	54	1288	6
020413	10:02	516	more	55	2899	more
020413	10:02	516	12more	56	1445	6
020413	10:02	516	hide	57	3721	hide
020413	10:02	516	13hide	58	3451	4
020413	10:02	516	peka	59	4527	peka
020413	10:02	516	4peka	60	2097	5
020413	10:02	516	scar	61	3459	scar
020413	10:02	516	20scar	62	1254	4
020413	10:02	516	cow	63	2994	cow
020413	10:02	516	16cow	64	665	4
020413	10:02	516	pems	65	3659	pems
020413	10:02	516	4pems	66	2935	4
020413	10:02	516	yeet	67	4776	yeet
020413	10:02	516	3yeet	68	1776	4
020413	10:02	516	sad	69	2687	sad
020413	10:02	516	20sad	70	3658	2
020413	10:02	516	wish	71	3950	wish
020413	10:02	516	17wish	72	1375	8
020413	10:02	516	lik	73	3566	lik
020413	10:02	516	11lik	74	1126	3
020413	10:02	516	jobe	75	5095	jobe
020413	10:02	516	1jobe	76	1330	4
020413	10:02	516	voom	77	4242	voom
020413	10:02	516	7voom	78	2103	6
020413	10:02	516	tage	79	3241	tage
020413	10:02	516	9tage	80	2246	5
020413	10:02	516	yate	81	3394	yate
020413	10:02	516	2yate	82	7136	4
020413	10:02	516	yoop	83	4906	yoop
020413	10:02	516	11yoop	84	1550	6
020413	10:02	516	tutk	85	4181	tutk
020413	10:02	516	5tutk	86	3101	4
020413	10:02	516	life	87	3167	life
020413	10:02	516	12life	88	487	8
020413	10:02	516	woem	89	4209	woem
020413	10:02	516	4woem	90	1495	4
020413	10:02	516	silk	91	4193	silk
020413	10:02	516	19silk	92	1791	9
020413	10:02	516	slin	93	8622	slin
020413	10:02	516	6slin	94	3934	5
020413	10:02	516	hay	95	2862	hay
020413	10:02	516	17hay	96	1458	4
020413	10:02	516	tove	97	3838	tove
020413	10:02	516	3tove	98	3603	6
020413	10:02	516	voke	99	4090	voke
020413	10:02	516	6voke	100	3357	4
020413	10:02	516	pill	101	3013	pill
020413	10:02	516	23pill	102	651	6
020413	10:02	516	nofe	103	3014	nofe
020413	10:02	516	1nofe	104	1492	5
020413	10:02	516	jufe	105	3719	jufe
020413	10:02	516	24jufe	106	489	4
020413	10:02	516	girl	107	3859	girl
020413	10:02	516	17girl	108	3383	6
020413	10:02	516	neeb	109	4310	neeb
020413	10:02	516	3neeb	110	3096	5
020413	10:02	516	foof	111	3002	foof
020413	10:02	516	7foof	112	5672	5
020413	10:02	516	flin	113	3620	flin
020413	10:02	516	6flin	114	4243	6
020413	10:02	516	meef	115	4543	meef
020413	10:02	516	3meef	116	4824	4
020413	10:02	516	lool	117	3078	lool
020413	10:02	516	11lool	118	713	8
020413	10:02	516	wasp	119	3866	wasp
020413	10:02	516	15wasp	120	614	1
020413	10:02	516	tomb	121	3459	tomb
020413	10:02	516	19tomb	122	751	2
020413	10:02	516	mafe	123	3414	mafe
020413	10:02	516	2mafe	124	396	5
020413	10:02	516	snob	125	3042	snob
020413	10:02	516	18snob	126	575	3
020413	10:02	516	voop	127	3653	voop
020413	10:02	516	7voop	128	3082	5
020413	10:02	516	pluk	129	4013	pluk
020413	10:02	516	10pluk	130	611	4
020413	10:02	516	obey	131	3672	obey
020413	10:02	516	14obey	132	492	6
020413	10:02	516	wac	133	2990	wac
020413	10:02	516	8wac	134	653	3
020413	10:02	516	bath	135	3464	bath
020413	10:02	516	15bath	136	1972	7
020413	10:02	516	leel	137	3179	leel
020413	10:02	516	3leel	138	690	4
020413	10:02	516	aqil	139	5420	aqil
020413	10:02	516	24aqil	140	4619	5
020413	10:02	516	nilo	141	3633	nilo
020413	10:02	516	11nilo	142	902	5
020413	10:02	516	nude	143	3288	nude
020413	10:02	516	13nude	144	1411	6
020413	10:02	516	soog	145	2728	soog
020413	10:02	516	7soog	146	945	4
020413	10:02	516	cute	147	2752	cute
020413	10:02	516	15cute	148	1193	7
020413	10:02	516	eat	149	2999	eat
020413	10:02	516	20eat	150	653	7
020413	10:02	516	zabe	151	4312	zabe
020413	10:02	516	9zabe	152	1618	4
020413	10:02	516	baby	153	3312	baby
020413	10:02	516	15baby	154	1729	6
020413	10:02	516	zafe	155	4098	zafe
020413	10:02	516	9zafe	156	621	5
020413	10:02	516	bowl	157	4121	bowl
020413	10:02	516	17bowl	158	1187	6
020413	10:02	516	pom	159	3146	pom
020413	10:02	516	22pom	160	690	6
020413	10:02	516	joom	161	4180	joom
020413	10:02	516	11joom	162	1260	5
020413	10:02	516	kige	163	3974	kige
020413	10:02	516	24kige	164	1469	5
020413	10:02	516	kabe	165	5506	kabe
020413	10:02	516	2kabe	166	2685	5
020413	10:02	516	seat	167	2840	seat
020413	10:02	516	20seat	168	477	7
020413	10:02	516	vape	169	3207	vape
020413	10:02	516	2vape	170	1309	6
020413	10:02	516	dlip	171	4231	dlip
020413	10:02	516	6dlip	172	1668	4
020413	10:02	516	fear	173	2767	fear
020413	10:02	516	21fear	174	1983	2
020413	10:02	516	song	175	3326	song
020413	10:02	516	18song	176	711	8
020413	10:02	516	lip	177	3343	lip
020413	10:02	516	22lip	178	1840	5
020413	10:02	516	melb	179	4164	melb
020413	10:02	516	4melb	180	589	5
020413	10:02	516	nuad	181	5691	nuad
020413	10:02	516	24nuad	182	1207	5
020413	10:02	516	hil	183	3084	hil
020413	10:02	516	10hil	184	2063	6
020413	10:02	516	jip	185	5010	jip
020413	10:02	516	22jip	186	649	3
020413	10:02	516	anay	187	3836	anay
020413	10:02	516	5anay	188	1890	4
020413	10:02	516	lust	189	3308	lust
020413	10:02	516	12lust	190	927	4
020413	10:02	516	tez	191	4503	tez
020413	10:02	516	8tez	192	4082	6
020413	10:02	516	yame	193	7397	yame
020413	10:02	516	5yame	194	2893	5
020413	10:02	516	name	195	2847	name
020413	10:02	516	17name	196	1491	6
020413	10:02	516	dawn	197	5366	dawn
020413	10:02	516	14dawn	198	1966	7
020413	10:02	516	sun	199	3269	sun
020413	10:02	516	19sun	200	497	8
020413	10:02	516	arm	201	2635	arm
020413	10:02	516	14arm	202	4439	6
020413	10:02	516	pobe	203	4037	pobe
020413	10:02	516	1pobe	204	1082	4
020413	10:02	516	fish	205	2892	fish
020413	10:02	516	16fish	206	479	4
020413	10:02	516	lids	207	4369	lids
020413	10:02	516	12lids	208	1025	6
020413	10:02	516	zest	209	4230	zest
020413	10:02	516	20zest	210	2571	5
020413	10:02	516	celm	211	3291	celm
020413	10:02	516	24celm	212	4958	5
020413	10:02	516	yip	213	3703	yip
020413	10:02	516	22yip	214	426	7
020413	10:02	516	noon	215	2766	noon
020413	10:02	516	23noon	216	582	6
020413	10:02	516	cell	217	2660	cell
020413	10:02	516	13cell	218	1911	3
020413	10:02	516	air	219	5137	air
020413	10:02	516	16air	220	1402	6
020413	10:02	516	veed	221	3592	veed
020413	10:02	516	9veed	222	1854	5
020413	10:02	516	wife	223	3314	wife
020413	10:02	516	14wife	224	1604	6
020413	10:02	516	waf	225	3074	waf
020413	10:02	516	8waf	226	1438	4
020413	10:02	516	lim	227	2522	lim
020413	10:02	516	10lim	228	1252	5
020413	10:02	516	liar	229	3263	liar
020413	10:02	516	12liar	230	1611	4
020413	10:02	516	bed	231	2784	bed
020413	10:02	516	21bed	232	1151	9
020413	10:02	516	star	233	3231	star
020413	10:02	516	21star	234	556	8
020413	10:02	516	clim	235	3515	clim
020413	10:02	516	6clim	236	2853	4
020413	10:02	516	alfi	237	3874	alfi
020413	10:02	516	4alfi	238	534	4
020413	10:02	516	fat	239	2926	fat
020413	10:02	516	21fat	240	519	3
021113	11:29	519	speed	1	3102	46
021113	11:29	519	error	2	2459	93
021113	11:29	519	whichhand	3	7486	Right
021113	11:29	519	yane	1	4419	yane
021113	11:29	519	5yane	2	3514	3
021113	11:29	519	army	3	3203	army
021113	11:29	519	13army	4	1281	5
021113	11:29	519	beeg	5	2195	beeg
021113	11:29	519	9beeg	6	1258	2
021113	11:29	519	lion	7	3005	lion
021113	11:29	519	23lion	8	764	5
021113	11:29	519	taxe	9	2778	taxe
021113	11:29	519	8taxe	10	1354	4
021113	11:29	519	pest	11	2769	pest
021113	11:29	519	14pest	12	1241	6
021113	11:29	519	sour	13	2141	sour
021113	11:29	519	18sour	14	735	7
021113	11:29	519	jame	15	2190	jame
021113	11:29	519	5jame	16	750	6
021113	11:29	519	ugly	17	3028	ugly
021113	11:29	519	19ugly	18	1962	5
021113	11:29	519	mom	19	2216	mom
021113	11:29	519	23mom	20	686	4
021113	11:29	519	lake	21	2127	lake
021113	11:29	519	16lake	22	665	6
021113	11:29	519	bees	23	2291	bees
021113	11:29	519	21bees	24	647	7
021113	11:29	519	nip	25	1849	nip
021113	11:29	519	22nip	26	686	5
021113	11:29	519	nop	27	2632	nop
021113	11:29	519	10nop	28	797	4
021113	11:29	519	blue	29	2082	blie
021113	11:29	519	18blue	30	1309	8
021113	11:29	519	cold	31	1886	cold
021113	11:29	519	19cold	32	1441	6
021113	11:29	519	lice	33	2653	lice
021113	11:29	519	13lice	34	602	5
021113	11:29	519	dax	35	1847	dax
021113	11:29	519	8dax	36	556	4
021113	11:29	519	plin	37	3010	plin
021113	11:29	519	10plin	38	1353	5
021113	11:29	519	lump	39	2143	lump
021113	11:29	519	23lump	40	832	6
021113	11:29	519	win	41	1676	win
021113	11:29	519	18win	42	1136	6
021113	11:29	519	jabe	43	2087	jabe
021113	11:29	519	2jabe	44	1667	5
021113	11:29	519	yofe	45	2429	yofe
021113	11:29	519	1yofe	46	971	3
021113	11:29	519	soob	47	1905	soob
021113	11:29	519	7soob	48	740	4
021113	11:29	519	slap	49	3235	slap
021113	11:29	519	16slap	50	1681	7
021113	11:29	519	nobe	51	3586	nobe
021113	11:29	519	1nobe	52	963	5
021113	11:29	519	frog	53	2241	frog
021113	11:29	519	15frog	54	1887	7
021113	11:29	519	more	55	1736	more
021113	11:29	519	12more	56	626	7
021113	11:29	519	hide	57	2070	hide
021113	11:29	519	13hide	58	674	7
021113	11:29	519	peka	59	2444	peka
021113	11:29	519	4peka	60	905	7
021113	11:29	519	scar	61	1826	scar
021113	11:29	519	20scar	62	1112	7
021113	11:29	519	cow	63	1648	cow
021113	11:29	519	16cow	64	781	7
021113	11:29	519	pems	65	1914	pems
021113	11:29	519	4pems	66	676	4
021113	11:29	519	yeet	67	1886	yeet
021113	11:29	519	3yeet	68	498	3
021113	11:29	519	sad	69	1930	sad
021113	11:29	519	20sad	70	692	8
021113	11:29	519	wish	71	1781	wish
021113	11:29	519	17wish	72	700	7
021113	11:29	519	lik	73	1773	lik
021113	11:29	519	11lik	74	817	2
021113	11:29	519	jobe	75	1889	jobe
021113	11:29	519	1jobe	76	1036	2
021113	11:29	519	voom	77	2120	voom
021113	11:29	519	7voom	78	1146	2
021113	11:29	519	tage	79	1833	tage
021113	11:29	519	9tage	80	606	3
021113	11:29	519	yate	81	2843	yate
021113	11:29	519	2yate	82	792	3
021113	11:29	519	yoop	83	2334	yoop
021113	11:29	519	11yoop	84	6983	3
021113	11:29	519	tutk	85	3030	tutk
021113	11:29	519	5tutk	86	852	1
021113	11:29	519	life	87	3479	life
021113	11:29	519	12life	88	1059	7
021113	11:29	519	woem	89	3086	woem
021113	11:29	519	4woem	90	874	3
021113	11:29	519	silk	91	1972	silk
021113	11:29	519	19silk	92	980	8
021113	11:29	519	slin	93	1961	slin
021113	11:29	519	6slin	94	882	4
021113	11:29	519	hay	95	2331	hay
021113	11:29	519	17hay	96	581	5
021113	11:29	519	tove	97	2074	tove
021113	11:29	519	3tove	98	926	4
021113	11:29	519	voke	99	2149	voke
021113	11:29	519	6voke	100	983	5
021113	11:29	519	pill	101	2164	pill
021113	11:29	519	23pill	102	1196	3
021113	11:29	519	nofe	103	3929	nofe
021113	11:29	519	1nofe	104	2051	4
021113	11:29	519	jufe	105	2190	jufe
021113	11:29	519	24jufe	106	542	4
021113	11:29	519	girl	107	2125	girl
021113	11:29	519	17girl	108	511	6
021113	11:29	519	neeb	109	2063	neeb
021113	11:29	519	3neeb	110	900	4
021113	11:29	519	foof	111	1764	foof
021113	11:29	519	7foof	112	749	3
021113	11:29	519	flin	113	2259	flin
021113	11:29	519	6flin	114	736	3
021113	11:29	519	meef	115	2023	meef
021113	11:29	519	3meef	116	1269	2
021113	11:29	519	lool	117	2143	lool
021113	11:29	519	11lool	118	1752	3
021113	11:29	519	wasp	119	1679	wasp
021113	11:29	519	15wasp	120	507	6
021113	11:29	519	tomb	121	3499	tomb
021113	11:29	519	19tomb	122	559	5
021113	11:29	519	mafe	123	1861	mafe
021113	11:29	519	2mafe	124	2529	3
021113	11:29	519	snob	125	2161	snob
021113	11:29	519	18snob	126	1130	4
021113	11:29	519	voop	127	1993	voop
021113	11:29	519	7voop	128	648	5
021113	11:29	519	pluk	129	2251	pluk
021113	11:29	519	10pluk	130	936	3
021113	11:29	519	obey	131	1983	obey
021113	11:29	519	14obey	132	1502	5
021113	11:29	519	wac	133	3047	wac
021113	11:29	519	8wac	134	2885	4
021113	11:29	519	bath	135	2591	bath
021113	11:29	519	15bath	136	1271	5
021113	11:29	519	leel	137	1905	leel
021113	11:29	519	3leel	138	755	4
021113	11:29	519	aqil	139	2546	aqil
021113	11:29	519	24aqil	140	1339	3
021113	11:29	519	nilo	141	1954	nilo
021113	11:29	519	11nilo	142	1116	4
021113	11:29	519	nude	143	3212	nude
021113	11:29	519	13nude	144	1130	5
021113	11:29	519	soog	145	3122	soog
021113	11:29	519	7soog	146	2580	3
021113	11:29	519	cute	147	2466	cute
021113	11:29	519	15cute	148	655	6
021113	11:29	519	eat	149	2377	eat
021113	11:29	519	20eat	150	673	8
021113	11:29	519	zabe	151	2171	zabe
021113	11:29	519	9zabe	152	667	4
021113	11:29	519	baby	153	2061	baby
021113	11:29	519	15baby	154	1153	4
021113	11:29	519	zafe	155	1928	zafe
021113	11:29	519	9zafe	156	1162	4
021113	11:29	519	bowl	157	1808	bowl
021113	11:29	519	17bowl	158	655	6
021113	11:29	519	pom	159	2097	pom
021113	11:29	519	22pom	160	1900	4
021113	11:29	519	joom	161	3213	joom
021113	11:29	519	11joom	162	1356	3
021113	11:29	519	kige	163	2019	kige
021113	11:29	519	24kige	164	1209	6
021113	11:29	519	kabe	165	2734	kabe
021113	11:29	519	2kabe	166	1223	3
021113	11:29	519	seat	167	2316	seat
021113	11:29	519	20seat	168	750	5
021113	11:29	519	vape	169	1725	vape
021113	11:29	519	2vape	170	1991	4
021113	11:29	519	dlip	171	3164	dlip
021113	11:29	519	6dlip	172	541	2
021113	11:29	519	fear	173	1988	fear
021113	11:29	519	21fear	174	1028	8
021113	11:29	519	song	175	1999	song
021113	11:29	519	18song	176	790	8
021113	11:29	519	lip	177	1987	lip
021113	11:29	519	22lip	178	843	5
021113	11:29	519	melb	179	2398	melb
021113	11:29	519	4melb	180	605	4
021113	11:29	519	nuad	181	2674	nuad
021113	11:29	519	24nuad	182	1902	4
021113	11:29	519	hil	183	1935	hil
021113	11:29	519	10hil	184	793	3
021113	11:29	519	jip	185	2454	jip
021113	11:29	519	22jip	186	1275	2
021113	11:29	519	anay	187	1853	anay
021113	11:29	519	5anay	188	1602	3
021113	11:29	519	lust	189	3703	lust
021113	11:29	519	12lust	190	1027	7
021113	11:29	519	tez	191	2102	tez
021113	11:29	519	8tez	192	593	1
021113	11:29	519	yame	193	4406	yame
021113	11:29	519	5yame	194	854	1
021113	11:29	519	name	195	1872	name
021113	11:29	519	17name	196	733	5
021113	11:29	519	dawn	197	2364	dawn
021113	11:29	519	14dawn	198	476	6
021113	11:29	519	sun	199	2502	swun
021113	11:29	519	19sun	200	2953	5
021113	11:29	519	arm	201	2433	arm
021113	11:29	519	14arm	202	1478	5
021113	11:29	519	pobe	203	2968	pobe
021113	11:29	519	1pobe	204	1297	2
021113	11:29	519	fish	205	1905	fish
021113	11:29	519	16fish	206	2556	5
021113	11:29	519	lids	207	2203	lids
021113	11:29	519	12lids	208	1066	4
021113	11:29	519	zest	209	3204	zest
021113	11:29	519	20zest	210	828	2
021113	11:29	519	celm	211	1855	celm
021113	11:29	519	24celm	212	860	4
021113	11:29	519	yip	213	2846	yip
021113	11:29	519	22yip	214	1331	2
021113	11:29	519	noon	215	2194	noon
021113	11:29	519	23noon	216	858	6
021113	11:29	519	cell	217	2652	cell
021113	11:29	519	13cell	218	809	6
021113	11:29	519	air	219	1702	air
021113	11:29	519	16air	220	473	6
021113	11:29	519	veed	221	1963	veed
021113	11:29	519	9veed	222	771	3
021113	11:29	519	wife	223	1969	wife
021113	11:29	519	14wife	224	713	5
021113	11:29	519	waf	225	2001	waf
021113	11:29	519	8waf	226	1376	2
021113	11:29	519	lim	227	1798	lim
021113	11:29	519	10lim	228	1237	2
021113	11:29	519	liar	229	2089	liar
021113	11:29	519	12liar	230	2924	6
021113	11:29	519	bed	231	3229	bed
021113	11:29	519	21bed	232	547	8
021113	11:29	519	star	233	2177	star
021113	11:29	519	21star	234	745	8
021113	11:29	519	clim	235	2712	clim
021113	11:29	519	6clim	236	1122	2
021113	11:29	519	alfi	237	2202	alfi
021113	11:29	519	4alfi	238	601	2
021113	11:29	519	fat	239	1950	fat
021113	11:29	519	21fat	240	823	1
021313	10:03	9519	speed	1	6291	37
021313	10:03	9519	error	2	3034	94
021313	10:03	9519	whichhand	3	8486	right
021313	10:03	9519	yane	1	5736	yane
021313	10:03	9519	5yane	2	9410	5
021313	10:03	9519	army	3	5289	army
021313	10:03	9519	13army	4	4310	3
021313	10:03	9519	beeg	5	3599	beeg
021313	10:03	9519	9beeg	6	2103	5
021313	10:03	9519	lion	7	2415	lion
021313	10:03	9519	23lion	8	2902	7
021313	10:03	9519	taxe	9	2455	taxe
021313	10:03	9519	8taxe	10	1892	4
021313	10:03	9519	pest	11	3206	pest
021313	10:03	9519	14pest	12	2061	3
021313	10:03	9519	sour	13	2287	sour
021313	10:03	9519	18sour	14	923	3
021313	10:03	9519	jame	15	2995	jame
021313	10:03	9519	5jame	16	2563	6
021313	10:03	9519	ugly	17	3025	ugly
021313	10:03	9519	19ugly	18	2472	2
021313	10:03	9519	mom	19	1762	mom
021313	10:03	9519	23mom	20	5106	8
021313	10:03	9519	lake	21	2996	lake
021313	10:03	9519	16lake	22	2196	8
021313	10:03	9519	bees	23	2249	bees
021313	10:03	9519	21bees	24	1846	6
021313	10:03	9519	nip	25	1577	nip
021313	10:03	9519	22nip	26	2968	5
021313	10:03	9519	nop	27	1631	nop
021313	10:03	9519	10nop	28	740	7
021313	10:03	9519	blue	29	1836	blue
021313	10:03	9519	18blue	30	1313	9
021313	10:03	9519	cold	31	2617	cold
021313	10:03	9519	19cold	32	936	3
021313	10:03	9519	lice	33	2775	lice
021313	10:03	9519	13lice	34	1039	1
021313	10:03	9519	dax	35	2435	dax
021313	10:03	9519	8dax	36	729	5
021313	10:03	9519	plin	37	2312	plin
021313	10:03	9519	10plin	38	1947	5
021313	10:03	9519	lump	39	2313	lump
021313	10:03	9519	23lump	40	1020	2
021313	10:03	9519	win	41	2328	win
021313	10:03	9519	18win	42	2986	8
021313	10:03	9519	jabe	43	2040	jabe
021313	10:03	9519	2jabe	44	2645	6
021313	10:03	9519	yofe	45	3096	yofe
021313	10:03	9519	1yofe	46	924	3
021313	10:03	9519	soob	47	1947	soob
021313	10:03	9519	7soob	48	3037	2
021313	10:03	9519	slap	49	1929	slap
021313	10:03	9519	16slap	50	786	1
021313	10:03	9519	nobe	51	3144	nobe
021313	10:03	9519	1nobe	52	1457	2
021313	10:03	9519	frog	53	2172	frog
021313	10:03	9519	15frog	54	2316	5
021313	10:03	9519	more	55	2228	more
021313	10:03	9519	12more	56	842	7
021313	10:03	9519	hide	57	2862	hide
021313	10:03	9519	13hide	58	1346	1
021313	10:03	9519	peka	59	3624	peka
021313	10:03	9519	4peka	60	1072	5
021313	10:03	9519	scar	61	2098	scar
021313	10:03	9519	20scar	62	677	2
021313	10:03	9519	cow	63	3486	cow
021313	10:03	9519	16cow	64	1186	7
021313	10:03	9519	pems	65	2047	pems
021313	10:03	9519	4pems	66	3340	6
021313	10:03	9519	yeet	67	2157	yeet
021313	10:03	9519	3yeet	68	2758	4
021313	10:03	9519	sad	69	1485	sad
021313	10:03	9519	20sad	70	624	1
021313	10:03	9519	wish	71	2428	wish
021313	10:03	9519	17wish	72	1786	8
021313	10:03	9519	lik	73	2191	lik
021313	10:03	9519	11lik	74	863	7
021313	10:03	9519	jobe	75	2897	jobe
021313	10:03	9519	1jobe	76	884	3
021313	10:03	9519	voom	77	2446	voom
021313	10:03	9519	7voom	78	659	6
021313	10:03	9519	tage	79	1878	tage
021313	10:03	9519	9tage	80	2257	3
021313	10:03	9519	yate	81	3540	yate
021313	10:03	9519	2yate	82	2830	6
021313	10:03	9519	yoop	83	2514	yoop
021313	10:03	9519	11yoop	84	812	2
021313	10:03	9519	tutk	85	4161	tutk
021313	10:03	9519	5tutk	86	2097	2
021313	10:03	9519	life	87	1826	life
021313	10:03	9519	12life	88	1384	6
021313	10:03	9519	woem	89	3029	woem
021313	10:03	9519	4woem	90	3923	2
021313	10:03	9519	silk	91	4156	silk
021313	10:03	9519	19silk	92	1046	8
021313	10:03	9519	slin	93	2033	slin
021313	10:03	9519	6slin	94	4454	5
021313	10:03	9519	hay	95	1913	hay
021313	10:03	9519	17hay	96	668	7
021313	10:03	9519	tove	97	2111	tove
021313	10:03	9519	3tove	98	1985	3
021313	10:03	9519	voke	99	2454	voke
021313	10:03	9519	6voke	100	2051	4
021313	10:03	9519	pill	101	1726	pill
021313	10:03	9519	23pill	102	824	5
021313	10:03	9519	nofe	103	1980	nofe
021313	10:03	9519	1nofe	104	524	2
021313	10:03	9519	jufe	105	1972	jufe
021313	10:03	9519	24jufe	106	1452	6
021313	10:03	9519	girl	107	2031	girl
021313	10:03	9519	17girl	108	868	8
021313	10:03	9519	neeb	109	2806	neeb
021313	10:03	9519	3neeb	110	982	3
021313	10:03	9519	foof	111	2907	foof
021313	10:03	9519	7foof	112	758	4
021313	10:03	9519	flin	113	2221	flin
021313	10:03	9519	6flin	114	5643	6
021313	10:03	9519	meef	115	2895	meef
021313	10:03	9519	3meef	116	4938	5
021313	10:03	9519	lool	117	2419	lool
021313	10:03	9519	11lool	118	1041	7
021313	10:03	9519	wasp	119	2053	wasp
021313	10:03	9519	15wasp	120	538	1
021313	10:03	9519	tomb	121	2873	tomb
021313	10:03	9519	19tomb	122	565	1
021313	10:03	9519	mafe	123	2203	mafe
021313	10:03	9519	2mafe	124	1826	2
021313	10:03	9519	snob	125	2166	snob
021313	10:03	9519	18snob	126	526	1
021313	10:03	9519	voop	127	2782	voop
021313	10:03	9519	7voop	128	2414	3
021313	10:03	9519	pluk	129	2618	pluk
021313	10:03	9519	10pluk	130	3705	4
021313	10:03	9519	obey	131	2275	obey
021313	10:03	9519	14obey	132	991	2
021313	10:03	9519	wac	133	1956	wac
021313	10:03	9519	8wac	134	1053	5
021313	10:03	9519	bath	135	1688	bath
021313	10:03	9519	15bath	136	539	9
021313	10:03	9519	leel	137	2875	leel
021313	10:03	9519	3leel	138	2671	4
021313	10:03	9519	aqil	139	3514	aqil
021313	10:03	9519	24aqil	140	1661	5
021313	10:03	9519	nilo	141	2183	nilo
021313	10:03	9519	11nilo	142	2942	6
021313	10:03	9519	nude	143	2246	nude
021313	10:03	9519	13nude	144	1163	6
021313	10:03	9519	soog	145	2001	soog
021313	10:03	9519	7soog	146	1208	7
021313	10:03	9519	cute	147	1925	cute
021313	10:03	9519	15cute	148	663	9
021313	10:03	9519	eat	149	1569	eat
021313	10:03	9519	20eat	150	921	9
021313	10:03	9519	zabe	151	2569	zabe
021313	10:03	9519	9zabe	152	785	4
021313	10:03	9519	baby	153	2607	baby
021313	10:03	9519	15baby	154	2142	8
021313	10:03	9519	zafe	155	2366	zafe
021313	10:03	9519	9zafe	156	2438	7
021313	10:03	9519	bowl	157	3626	bowl
021313	10:03	9519	17bowl	158	824	6
021313	10:03	9519	pom	159	1900	pom
021313	10:03	9519	22pom	160	3047	6
021313	10:03	9519	joom	161	3114	joom
021313	10:03	9519	11joom	162	2021	2
021313	10:03	9519	kige	163	4089	kige
021313	10:03	9519	24kige	164	829	4
021313	10:03	9519	kabe	165	2705	kabe
021313	10:03	9519	2kabe	166	2380	4
021313	10:03	9519	seat	167	2609	seat
021313	10:03	9519	20seat	168	2808	6
021313	10:03	9519	vape	169	2749	vape
021313	10:03	9519	2vape	170	1974	3
021313	10:03	9519	dlip	171	2045	dlip
021313	10:03	9519	6dlip	172	1130	7
021313	10:03	9519	fear	173	2233	fear
021313	10:03	9519	21fear	174	575	1
021313	10:03	9519	song	175	2605	song
021313	10:03	9519	18song	176	1324	7
021313	10:03	9519	lip	177	1756	lip
021313	10:03	9519	22lip	178	1085	8
021313	10:03	9519	melb	179	1830	malb
021313	10:03	9519	4melb	180	3812	5
021313	10:03	9519	nuad	181	2457	nuad
021313	10:03	9519	24nuad	182	998	2
021313	10:03	9519	hil	183	1995	hil
021313	10:03	9519	10hil	184	770	5
021313	10:03	9519	jip	185	2184	jip
021313	10:03	9519	22jip	186	1543	1
021313	10:03	9519	anay	187	2830	anay
021313	10:03	9519	5anay	188	3036	3
021313	10:03	9519	lust	189	1848	lust
021313	10:03	9519	12lust	190	2493	2
021313	10:03	9519	tez	191	2230	tez
021313	10:03	9519	8tez	192	1068	4
021313	10:03	9519	yame	193	2502	yame
021313	10:03	9519	5yame	194	625	5
021313	10:03	9519	name	195	2076	name
021313	10:03	9519	17name	196	664	7
021313	10:03	9519	dawn	197	2522	dawn
021313	10:03	9519	14dawn	198	589	5
021313	10:03	9519	sun	199	2282	sun
021313	10:03	9519	19sun	200	958	9
021313	10:03	9519	arm	201	2284	arm
021313	10:03	9519	14arm	202	872	7
021313	10:03	9519	pobe	203	2330	pobe
021313	10:03	9519	1pobe	204	812	3
021313	10:03	9519	fish	205	2128	fish
021313	10:03	9519	16fish	206	2025	6
021313	10:03	9519	lids	207	2533	lids
021313	10:03	9519	12lids	208	679	5
021313	10:03	9519	zest	209	2345	zest
021313	10:03	9519	20zest	210	1482	7
021313	10:03	9519	celm	211	1955	celm
021313	10:03	9519	24celm	212	1708	6
021313	10:03	9519	yip	213	2285	yip
021313	10:03	9519	22yip	214	577	7
021313	10:03	9519	noon	215	2054	noon
021313	10:03	9519	23noon	216	771	6
021313	10:03	9519	cell	217	1985	cell
021313	10:03	9519	13cell	218	465	6
021313	10:03	9519	air	219	1994	air
021313	10:03	9519	16air	220	450	8
021313	10:03	9519	veed	221	1772	veed
021313	10:03	9519	9veed	222	2884	3
021313	10:03	9519	wife	223	2102	wife
021313	10:03	9519	14wife	224	3409	9
021313	10:03	9519	waf	225	2646	waf
021313	10:03	9519	8waf	226	1658	4
021313	10:03	9519	lim	227	1366	lim
021313	10:03	9519	10lim	228	1782	4
021313	10:03	9519	liar	229	1651	liar
021313	10:03	9519	12liar	230	984	1
021313	10:03	9519	bed	231	1725	bed
021313	10:03	9519	21bed	232	527	9
021313	10:03	9519	star	233	3326	star
021313	10:03	9519	21star	234	593	9
021313	10:03	9519	clim	235	1798	clim
021313	10:03	9519	6clim	236	5684	3
021313	10:03	9519	alfi	237	3935	alfi
021313	10:03	9519	4alfi	238	770	2
021313	10:03	9519	fat	239	1807	fat
021313	10:03	9519	21fat	240	1071	1
021313	11:24	98496	speed	1	11036	41
021313	11:24	98496	error	2	4963	97
021313	11:24	98496	whichhand	3	9444	right
021313	11:24	98496	yane	1	5289	yane
021313	11:24	98496	5yane	2	4229	5
021313	11:24	98496	army	3	4019	army
021313	11:24	98496	13army	4	3345	6
021313	11:24	98496	beeg	5	3569	beeg
021313	11:24	98496	9beeg	6	2169	4
021313	11:24	98496	lion	7	3504	lion
021313	11:24	98496	23lion	8	2051	3
021313	11:24	98496	taxe	9	3207	taxe
021313	11:24	98496	8taxe	10	3645	4
021313	11:24	98496	pest	11	5633	pest
021313	11:24	98496	14pest	12	1991	4
021313	11:24	98496	sour	13	3958	sour
021313	11:24	98496	18sour	14	1799	5
021313	11:24	98496	jame	15	3804	jame
021313	11:24	98496	5jame	16	3195	5
021313	11:24	98496	ugly	17	3537	ugly
021313	11:24	98496	19ugly	18	2666	4
021313	11:24	98496	mom	19	5094	mom
021313	11:24	98496	23mom	20	1657	6
021313	11:24	98496	lake	21	3357	lake
021313	11:24	98496	16lake	22	1365	7
021313	11:24	98496	bees	23	5260	bees
021313	11:24	98496	21bees	24	2545	7
021313	11:24	98496	nip	25	3624	nip
021313	11:24	98496	22nip	26	1023	6
021313	11:24	98496	nop	27	3276	nop
021313	11:24	98496	10nop	28	2671	5
021313	11:24	98496	blue	29	3122	blue
021313	11:24	98496	18blue	30	1060	6
021313	11:24	98496	cold	31	5687	cold
021313	11:24	98496	19cold	32	3979	5
021313	11:24	98496	lice	33	3594	lice
021313	11:24	98496	13lice	34	1200	3
021313	11:24	98496	dax	35	3366	dax
021313	11:24	98496	8dax	36	942	6
021313	11:24	98496	plin	37	3542	plin
021313	11:24	98496	10plin	38	1759	5
021313	11:24	98496	lump	39	3535	lump
021313	11:24	98496	23lump	40	856	4
021313	11:24	98496	win	41	3011	win
021313	11:24	98496	18win	42	1913	7
021313	11:24	98496	jabe	43	2898	jabe
021313	11:24	98496	2jabe	44	1741	5
021313	11:24	98496	yofe	45	3565	yofe
021313	11:24	98496	1yofe	46	2197	4
021313	11:24	98496	soob	47	3507	soob
021313	11:24	98496	7soob	48	1077	4
021313	11:24	98496	slap	49	4520	slap
021313	11:24	98496	16slap	50	1778	4
021313	11:24	98496	nobe	51	4160	nobe
021313	11:24	98496	1nobe	52	6648	5
021313	11:24	98496	frog	53	3846	frog
021313	11:24	98496	15frog	54	1907	6
021313	11:24	98496	more	55	2981	more
021313	11:24	98496	12more	56	979	7
021313	11:24	98496	hide	57	3706	hide
021313	11:24	98496	13hide	58	1124	6
021313	11:24	98496	peka	59	3829	peka
021313	11:24	98496	4peka	60	4002	4
021313	11:24	98496	scar	61	3449	scar
021313	11:24	98496	20scar	62	2862	6
021313	11:24	98496	cow	63	3145	cow
021313	11:24	98496	16cow	64	1818	5
021313	11:24	98496	pems	65	3367	pems
021313	11:24	98496	4pems	66	4743	5
021313	11:24	98496	yeet	67	3511	yeet
021313	11:24	98496	3yeet	68	2904	4
021313	11:24	98496	sad	69	3371	sad
021313	11:24	98496	20sad	70	9227	4
021313	11:24	98496	wish	71	3018	wish
021313	11:24	98496	17wish	72	1800	7
021313	11:24	98496	lik	73	3781	lik
021313	11:24	98496	11lik	74	1837	5
021313	11:24	98496	jobe	75	3873	jobe
021313	11:24	98496	1jobe	76	4165	4
021313	11:24	98496	voom	77	2997	voom
021313	11:24	98496	7voom	78	2500	5
021313	11:24	98496	tage	79	3790	tage
021313	11:24	98496	9tage	80	925	5
021313	11:24	98496	yate	81	2790	yate
021313	11:24	98496	2yate	82	757	6
021313	11:24	98496	yoop	83	3172	yoop
021313	11:24	98496	11yoop	84	780	5
021313	11:24	98496	tutk	85	5154	tutk
021313	11:24	98496	5tutk	86	3627	3
021313	11:24	98496	life	87	2992	life
021313	11:24	98496	12life	88	2071	6
021313	11:24	98496	woem	89	3882	woem
021313	11:24	98496	4woem	90	5973	5
021313	11:24	98496	silk	91	3134	silk
021313	11:24	98496	19silk	92	1575	7
021313	11:24	98496	slin	93	3166	slin
021313	11:24	98496	6slin	94	710	5
021313	11:24	98496	hay	95	3143	hay
021313	11:24	98496	17hay	96	511	6
021313	11:24	98496	tove	97	4248	tove
021313	11:24	98496	3tove	98	2212	5
021313	11:24	98496	voke	99	3178	voke
021313	11:24	98496	6voke	100	1017	4
021313	11:24	98496	pill	101	3294	pill
021313	11:24	98496	23pill	102	608	5
021313	11:24	98496	nofe	103	2726	nofe
021313	11:24	98496	1nofe	104	1223	4
021313	11:24	98496	jufe	105	2956	jufe
021313	11:24	98496	24jufe	106	1068	4
021313	11:24	98496	girl	107	2735	girl
021313	11:24	98496	17girl	108	1104	6
021313	11:24	98496	neeb	109	3498	neeb
021313	11:24	98496	3neeb	110	1204	6
021313	11:24	98496	foof	111	2970	foof
021313	11:24	98496	7foof	112	1802	5
021313	11:24	98496	flin	113	3167	flin
021313	11:24	98496	6flin	114	879	5
021313	11:24	98496	meef	115	3633	meef
021313	11:24	98496	3meef	116	782	4
021313	11:24	98496	lool	117	2909	lool
021313	11:24	98496	11lool	118	679	4
021313	11:24	98496	wasp	119	3225	wasp
021313	11:24	98496	15wasp	120	687	5
021313	11:24	98496	tomb	121	8049	tomb
021313	11:24	98496	19tomb	122	1087	7
021313	11:24	98496	mafe	123	2969	mafe
021313	11:24	98496	2mafe	124	1121	5
021313	11:24	98496	snob	125	7522	snob
021313	11:24	98496	18snob	126	4397	3
021313	11:24	98496	voop	127	4948	voop
021313	11:24	98496	7voop	128	3021	5
021313	11:24	98496	pluk	129	4017	pluk
021313	11:24	98496	10pluk	130	6855	5
021313	11:24	98496	obey	131	2789	obey
021313	11:24	98496	14obey	132	1124	4
021313	11:24	98496	wac	133	2685	wac
021313	11:24	98496	8wac	134	1096	2
021313	11:24	98496	bath	135	2642	bath
021313	11:24	98496	15bath	136	3103	6
021313	11:24	98496	leel	137	2217	leel
021313	11:24	98496	3leel	138	2606	4
021313	11:24	98496	aqil	139	5140	aqil
021313	11:24	98496	24aqil	140	3406	4
021313	11:24	98496	nilo	141	2460	nilo
021313	11:24	98496	11nilo	142	1816	4
021313	11:24	98496	nude	143	2949	nude
021313	11:24	98496	13nude	144	1606	3
021313	11:24	98496	soog	145	2179	soog
021313	11:24	98496	7soog	146	1810	4
021313	11:24	98496	cute	147	2823	cute
021313	11:24	98496	15cute	148	2309	7
021313	11:24	98496	eat	149	1983	eat
021313	11:24	98496	20eat	150	1750	5
021313	11:24	98496	zabe	151	2813	zabe
021313	11:24	98496	9zabe	152	1307	5
021313	11:24	98496	baby	153	3389	baby
021313	11:24	98496	15baby	154	2140	6
021313	11:24	98496	zafe	155	2837	zafe
021313	11:24	98496	9zafe	156	618	5
021313	11:24	98496	bowl	157	2262	bowl
021313	11:24	98496	17bowl	158	866	5
021313	11:24	98496	pom	159	2709	pom
021313	11:24	98496	22pom	160	711	6
021313	11:24	98496	joom	161	2520	joom
021313	11:24	98496	11joom	162	729	5
021313	11:24	98496	kige	163	3522	kige
021313	11:24	98496	24kige	164	4155	5
021313	11:24	98496	kabe	165	2308	kabe
021313	11:24	98496	2kabe	166	1510	4
021313	11:24	98496	seat	167	2335	seat
021313	11:24	98496	20seat	168	1072	6
021313	11:24	98496	vape	169	2315	vape
021313	11:24	98496	2vape	170	1380	5
021313	11:24	98496	dlip	171	5579	dlip
021313	11:24	98496	6dlip	172	707	4
021313	11:24	98496	fear	173	2308	fear
021313	11:24	98496	21fear	174	1990	3
021313	11:24	98496	song	175	2061	song
021313	11:24	98496	18song	176	880	7
021313	11:24	98496	lip	177	2378	lip
021313	11:24	98496	22lip	178	985	7
021313	11:24	98496	melb	179	2751	melb
021313	11:24	98496	4melb	180	1280	5
021313	11:24	98496	nuad	181	2770	nuad
021313	11:24	98496	24nuad	182	394	4
021313	11:24	98496	hil	183	2071	hil
021313	11:24	98496	10hil	184	1539	5
021313	11:24	98496	jip	185	2739	jip
021313	11:24	98496	22jip	186	1820	4
021313	11:24	98496	anay	187	2169	anay
021313	11:24	98496	5anay	188	505	4
021313	11:24	98496	lust	189	2506	lust
021313	11:24	98496	12lust	190	1420	1
021313	11:24	98496	tez	191	2497	tez
021313	11:24	98496	8tez	192	2452	4
021313	11:24	98496	yame	193	2304	yame
021313	11:24	98496	5yame	194	522	4
021313	11:24	98496	name	195	2075	name
021313	11:24	98496	17name	196	446	5
021313	11:24	98496	dawn	197	3633	dawn
021313	11:24	98496	14dawn	198	1391	6
021313	11:24	98496	sun	199	2029	sun
021313	11:24	98496	19sun	200	530	7
021313	11:24	98496	arm	201	2690	arm
021313	11:24	98496	14arm	202	677	6
021313	11:24	98496	pobe	203	2655	pobe
021313	11:24	98496	1pobe	204	755	4
021313	11:24	98496	fish	205	2130	fish
021313	11:24	98496	16fish	206	2235	6
021313	11:24	98496	lids	207	2040	lide
021313	11:24	98496	12lids	208	597	6
021313	11:24	98496	zest	209	2562	zest
021313	11:24	98496	20zest	210	418	6
021313	11:24	98496	celm	211	2494	celm
021313	11:24	98496	24celm	212	409	4
021313	11:24	98496	yip	213	2606	yip
021313	11:24	98496	22yip	214	828	3
021313	11:24	98496	noon	215	4304	noon
021313	11:24	98496	23noon	216	907	6
021313	11:24	98496	cell	217	2317	cell
021313	11:24	98496	13cell	218	374	4
021313	11:24	98496	air	219	2021	air
021313	11:24	98496	16air	220	1386	7
021313	11:24	98496	veed	221	2865	veed
021313	11:24	98496	9veed	222	1269	4
021313	11:24	98496	wife	223	2352	wife
021313	11:24	98496	14wife	224	592	8
021313	11:24	98496	waf	225	1982	waf
021313	11:24	98496	8waf	226	533	4
021313	11:24	98496	lim	227	2461	lim
021313	11:24	98496	10lim	228	1928	4
021313	11:24	98496	liar	229	2161	liar
021313	11:24	98496	12liar	230	432	2
021313	11:24	98496	bed	231	1868	bed
021313	11:24	98496	21bed	232	400	6
021313	11:24	98496	star	233	2765	star
021313	11:24	98496	21star	234	533	7
021313	11:24	98496	clim	235	2613	clim
021313	11:24	98496	6clim	236	2234	5
021313	11:24	98496	alfi	237	2119	alfi
021313	11:24	98496	4alfi	238	1872	4
021313	11:24	98496	fat	239	1827	fat
021313	11:24	98496	21fat	240	728	3
022013	11:00	1	speed	1	3187	37
022013	11:00	1	error	2	2632	94
022013	11:00	1	whichhand	3	19228	right hand
022013	11:00	1	yane	1	6412	yane
022013	11:00	1	5yane	2	9795	5
022013	11:00	1	army	3	4259	army
022013	11:00	1	13army	4	6791	3
022013	11:00	1	beeg	5	4623	beeg
022013	11:00	1	9beeg	6	4509	5
022013	11:00	1	lion	7	3679	lion
022013	11:00	1	23lion	8	5226	7
022013	11:00	1	taxe	9	3752	taxe
022013	11:00	1	8taxe	10	4288	4
022013	11:00	1	pest	11	3092	pest
022013	11:00	1	14pest	12	2655	2
022013	11:00	1	sour	13	2739	sour
022013	11:00	1	18sour	14	2139	5
022013	11:00	1	jame	15	2660	jame
022013	11:00	1	5jame	16	6888	6
022013	11:00	1	ugly	17	3148	ugly
022013	11:00	1	19ugly	18	5404	3
022013	11:00	1	mom	19	2796	mom
022013	11:00	1	23mom	20	3442	8
022013	11:00	1	lake	21	2647	lake
022013	11:00	1	16lake	22	1331	7
022013	11:00	1	bees	23	2883	bees
022013	11:00	1	21bees	24	1583	5
022013	11:00	1	nip	25	2533	nip
022013	11:00	1	22nip	26	1350	5
022013	11:00	1	nop	27	3166	nop
022013	11:00	1	10nop	28	1525	6
022013	11:00	1	blue	29	3926	blue
022013	11:00	1	18blue	30	2999	3
022013	11:00	1	cold	31	2782	cold
022013	11:00	1	19cold	32	2629	4
022013	11:00	1	lice	33	2874	lice
022013	11:00	1	13lice	34	1045	5
022013	11:00	1	dax	35	2281	dax
022013	11:00	1	8dax	36	1988	6
022013	11:00	1	plin	37	3146	plin
022013	11:00	1	10plin	38	4611	5
022013	11:00	1	lump	39	2993	lump
022013	11:00	1	23lump	40	3279	6
022013	11:00	1	win	41	2562	win
022013	11:00	1	18win	42	961	9
022013	11:00	1	jabe	43	3568	jabe
022013	11:00	1	2jabe	44	2720	5
022013	11:00	1	yofe	45	3210	yofe
022013	11:00	1	1yofe	46	2520	6
022013	11:00	1	soob	47	2705	soob
022013	11:00	1	7soob	48	1212	4
022013	11:00	1	slap	49	3104	slap
022013	11:00	1	16slap	50	4539	3
022013	11:00	1	nobe	51	4836	nobe
022013	11:00	1	1nobe	52	2914	5
022013	11:00	1	frog	53	2867	frog
022013	11:00	1	15frog	54	2471	5
022013	11:00	1	more	55	3082	more
022013	11:00	1	12more	56	2373	7
022013	11:00	1	hide	57	2757	hide
022013	11:00	1	13hide	58	1005	4
022013	11:00	1	peka	59	2763	peka
022013	11:00	1	4peka	60	1130	6
022013	11:00	1	scar	61	2419	scar
022013	11:00	1	20scar	62	1216	4
022013	11:00	1	cow	63	2693	cow
022013	11:00	1	16cow	64	4535	5
022013	11:00	1	pems	65	3505	pems
022013	11:00	1	4pems	66	3731	5
022013	11:00	1	yeet	67	2948	yeet
022013	11:00	1	3yeet	68	1405	4
022013	11:00	1	sad	69	2034	sad
022013	11:00	1	20sad	70	3439	3
022013	11:00	1	wish	71	2588	wish
022013	11:00	1	17wish	72	3723	7
022013	11:00	1	lik	73	2589	lik
022013	11:00	1	11lik	74	2252	5
022013	11:00	1	jobe	75	3200	jobe
022013	11:00	1	1jobe	76	2502	5
022013	11:00	1	voom	77	3168	voom
022013	11:00	1	7voom	78	4200	4
022013	11:00	1	tage	79	2775	tage
022013	11:00	1	9tage	80	3686	6
022013	11:00	1	yate	81	3649	yate
022013	11:00	1	2yate	82	1534	7
022013	11:00	1	yoop	83	2846	yoop
022013	11:00	1	11yoop	84	1987	4
022013	11:00	1	tutk	85	3945	tutk
022013	11:00	1	5tutk	86	1658	4
022013	11:00	1	life	87	2822	life
022013	11:00	1	12life	88	516	6
022013	11:00	1	woem	89	2788	woem
022013	11:00	1	4woem	90	1083	5
022013	11:00	1	silk	91	3701	silk
022013	11:00	1	19silk	92	928	5
022013	11:00	1	slin	93	4224	slin
022013	11:00	1	6slin	94	3830	6
022013	11:00	1	hay	95	3036	hay
022013	11:00	1	17hay	96	3177	4
022013	11:00	1	tove	97	3559	tove
022013	11:00	1	3tove	98	5328	3
022013	11:00	1	voke	99	2753	voke
022013	11:00	1	6voke	100	3489	5
022013	11:00	1	pill	101	2948	pill
022013	11:00	1	23pill	102	2301	4
022013	11:00	1	nofe	103	2775	nofe
022013	11:00	1	1nofe	104	934	6
022013	11:00	1	jufe	105	2998	jufe
022013	11:00	1	24jufe	106	2173	5
022013	11:00	1	girl	107	2540	girl
022013	11:00	1	17girl	108	1021	8
022013	11:00	1	neeb	109	2522	neeb
022013	11:00	1	3neeb	110	2828	6
022013	11:00	1	foof	111	2776	foof
022013	11:00	1	7foof	112	655	4
022013	11:00	1	flin	113	3883	flin
022013	11:00	1	6flin	114	1550	3
022013	11:00	1	meef	115	2566	meef
022013	11:00	1	3meef	116	1486	6
022013	11:00	1	lool	117	2704	lool
022013	11:00	1	11lool	118	3050	3
022013	11:00	1	wasp	119	3030	wasp
022013	11:00	1	15wasp	120	940	5
022013	11:00	1	tomb	121	2420	tomb
022013	11:00	1	19tomb	122	1729	6
022013	11:00	1	mafe	123	3890	mafe
022013	11:00	1	2mafe	124	2733	6
022013	11:00	1	snob	125	2574	snob
022013	11:00	1	18snob	126	501	6
022013	11:00	1	voop	127	3094	voop
022013	11:00	1	7voop	128	1185	5
022013	11:00	1	pluk	129	4271	pluk
022013	11:00	1	10pluk	130	916	3
022013	11:00	1	obey	131	2996	obey
022013	11:00	1	14obey	132	691	4
022013	11:00	1	wac	133	2285	wac
022013	11:00	1	8wac	134	640	6
022013	11:00	1	bath	135	2684	bath
022013	11:00	1	15bath	136	1167	7
022013	11:00	1	leel	137	2646	leel
022013	11:00	1	3leel	138	434	6
022013	11:00	1	aqil	139	2958	aqil
022013	11:00	1	24aqil	140	687	3
022013	11:00	1	nilo	141	2977	nilo
022013	11:00	1	11nilo	142	2936	6
022013	11:00	1	nude	143	2625	nude
022013	11:00	1	13nude	144	1166	6
022013	11:00	1	soog	145	2349	soog
022013	11:00	1	7soog	146	1661	6
022013	11:00	1	cute	147	2313	cute
022013	11:00	1	15cute	148	1442	8
022013	11:00	1	eat	149	2006	eat
022013	11:00	1	20eat	150	1828	6
022013	11:00	1	zabe	151	2561	zabe
022013	11:00	1	9zabe	152	761	3
022013	11:00	1	baby	153	4095	baby
022013	11:00	1	15baby	154	962	6
022013	11:00	1	zafe	155	2377	zafe
022013	11:00	1	9zafe	156	1072	6
022013	11:00	1	bowl	157	2419	bowl
022013	11:00	1	17bowl	158	664	7
022013	11:00	1	pom	159	2803	porn
022013	11:00	1	22pom	160	4617	6
022013	11:00	1	joom	161	2983	joom
022013	11:00	1	11joom	162	2143	5
022013	11:00	1	kige	163	2910	kige
022013	11:00	1	24kige	164	1664	5
022013	11:00	1	kabe	165	2699	kabe
022013	11:00	1	2kabe	166	1254	6
022013	11:00	1	seat	167	2857	seat
022013	11:00	1	20seat	168	1334	7
022013	11:00	1	vape	169	2694	vape
022013	11:00	1	2vape	170	520	6
022013	11:00	1	dlip	171	3673	dlip
022013	11:00	1	6dlip	172	885	4
022013	11:00	1	fear	173	2191	fear
022013	11:00	1	21fear	174	950	3
022013	11:00	1	song	175	2341	song
022013	11:00	1	18song	176	550	7
022013	11:00	1	lip	177	4446	lip
022013	11:00	1	22lip	178	2251	6
022013	11:00	1	melb	179	3230	melb
022013	11:00	1	4melb	180	1012	3
022013	11:00	1	nuad	181	3584	nuad
022013	11:00	1	24nuad	182	1135	2
022013	11:00	1	hil	183	2816	hil
022013	11:00	1	10hil	184	558	6
022013	11:00	1	jip	185	2645	jip
022013	11:00	1	22jip	186	1401	4
022013	11:00	1	anay	187	2775	anay
022013	11:00	1	5anay	188	902	6
022013	11:00	1	lust	189	2600	lust
022013	11:00	1	12lust	190	711	4
022013	11:00	1	tez	191	2391	tez
022013	11:00	1	8tez	192	670	6
022013	11:00	1	yame	193	2553	yame
022013	11:00	1	5yame	194	2353	6
022013	11:00	1	name	195	2617	name
022013	11:00	1	17name	196	615	7
022013	11:00	1	dawn	197	2276	dawn
022013	11:00	1	14dawn	198	566	8
022013	11:00	1	sun	199	2517	sun
022013	11:00	1	19sun	200	519	7
022013	11:00	1	arm	201	2295	arm
022013	11:00	1	14arm	202	770	4
022013	11:00	1	pobe	203	2928	pobe
022013	11:00	1	1pobe	204	1442	4
022013	11:00	1	fish	205	2838	fish
022013	11:00	1	16fish	206	1363	7
022013	11:00	1	lids	207	3626	lids
022013	11:00	1	12lids	208	767	4
022013	11:00	1	zest	209	2118	zest
022013	11:00	1	20zest	210	1807	4
022013	11:00	1	celm	211	2605	celm
022013	11:00	1	24celm	212	1140	6
022013	11:00	1	yip	213	2412	yip
022013	11:00	1	22yip	214	849	4
022013	11:00	1	noon	215	4349	noon
022013	11:00	1	23noon	216	2230	8
022013	11:00	1	cell	217	2338	cell
022013	11:00	1	13cell	218	579	3
022013	11:00	1	air	219	2129	air
022013	11:00	1	16air	220	1185	7
022013	11:00	1	veed	221	1888	veed
022013	11:00	1	9veed	222	899	2
022013	11:00	1	wife	223	2533	wife
022013	11:00	1	14wife	224	1709	4
022013	11:00	1	waf	225	1927	waf
022013	11:00	1	8waf	226	455	3
022013	11:00	1	lim	227	2523	lim
022013	11:00	1	10lim	228	2500	4
022013	11:00	1	liar	229	3678	liar
022013	11:00	1	12liar	230	842	3
022013	11:00	1	bed	231	1870	bed
022013	11:00	1	21bed	232	521	7
022013	11:00	1	star	233	1890	star
022013	11:00	1	21star	234	613	8
022013	11:00	1	clim	235	2809	clim
022013	11:00	1	6clim	236	775	3
022013	11:00	1	alfi	237	2670	alfi
022013	11:00	1	4alfi	238	570	2
022013	11:00	1	fat	239	2144	fat
022013	11:00	1	21fat	240	1041	2
022713	10:11	546	speed	1	3066	54
022713	10:11	546	error	2	4697	94
022713	10:11	546	whichhand	3	8292	right
022713	10:11	546	yane	1	6633	yane
022713	10:11	546	5yane	2	7631	5
022713	10:11	546	army	3	6046	army
022713	10:11	546	13army	4	2147	6
022713	10:11	546	beeg	5	3939	beeg
022713	10:11	546	9beeg	6	1213	5
022713	10:11	546	lion	7	3593	lion
022713	10:11	546	23lion	8	672	8
022713	10:11	546	taxe	9	4131	taxe
022713	10:11	546	8taxe	10	1836	6
022713	10:11	546	pest	11	3369	pest
022713	10:11	546	14pest	12	1025	2
022713	10:11	546	sour	13	3557	sour
022713	10:11	546	18sour	14	654	2
022713	10:11	546	jame	15	4306	jame
022713	10:11	546	5jame	16	1932	5
022713	10:11	546	ugly	17	3285	ugly
022713	10:11	546	19ugly	18	1056	2
022713	10:11	546	mom	19	2635	mom
022713	10:11	546	23mom	20	769	8
022713	10:11	546	lake	21	3127	lake
022713	10:11	546	16lake	22	1304	8
022713	10:11	546	bees	23	2938	bees
022713	10:11	546	21bees	24	651	4
022713	10:11	546	nip	25	3639	nip
022713	10:11	546	22nip	26	428	5
022713	10:11	546	nop	27	2584	nop
022713	10:11	546	10nop	28	2071	3
022713	10:11	546	blue	29	2986	blue
022713	10:11	546	18blue	30	2729	6
022713	10:11	546	cold	31	2914	cold
022713	10:11	546	19cold	32	1036	3
022713	10:11	546	lice	33	3096	lice
022713	10:11	546	13lice	34	1738	3
022713	10:11	546	dax	35	2963	dax
022713	10:11	546	8dax	36	482	3
022713	10:11	546	plin	37	6268	plin
022713	10:11	546	10plin	38	1177	5
022713	10:11	546	lump	39	3504	lump
022713	10:11	546	23lump	40	3250	4
022713	10:11	546	win	41	2606	win
022713	10:11	546	18win	42	597	7
022713	10:11	546	jabe	43	3170	jabe
022713	10:11	546	2jabe	44	2738	5
022713	10:11	546	yofe	45	3331	yofe
022713	10:11	546	1yofe	46	1236	4
022713	10:11	546	soob	47	3304	soob
022713	10:11	546	7soob	48	2835	3
022713	10:11	546	slap	49	2719	slap
022713	10:11	546	16slap	50	2441	4
022713	10:11	546	nobe	51	3486	nobe
022713	10:11	546	1nobe	52	969	5
022713	10:11	546	frog	53	3424	frog
022713	10:11	546	15frog	54	710	6
022713	10:11	546	more	55	2710	more
022713	10:11	546	12more	56	4632	6
022713	10:11	546	hide	57	3045	hide
022713	10:11	546	13hide	58	890	4
022713	10:11	546	peka	59	3036	peka
022713	10:11	546	4peka	60	673	5
022713	10:11	546	scar	61	2420	scar
022713	10:11	546	20scar	62	3146	4
022713	10:11	546	cow	63	3794	cow
022713	10:11	546	16cow	64	689	6
022713	10:11	546	pems	65	3563	pems
022713	10:11	546	4pems	66	1203	5
022713	10:11	546	yeet	67	3072	yeet
022713	10:11	546	3yeet	68	3988	4
022713	10:11	546	sad	69	2867	sad
022713	10:11	546	20sad	70	1007	3
022713	10:11	546	wish	71	3020	wish
022713	10:11	546	17wish	72	874	6
022713	10:11	546	lik	73	3005	lik
022713	10:11	546	11lik	74	1739	4
022713	10:11	546	jobe	75	3116	jobe
022713	10:11	546	1jobe	76	1317	5
022713	10:11	546	voom	77	3190	voom
022713	10:11	546	7voom	78	598	5
022713	10:11	546	tage	79	2731	tage
022713	10:11	546	9tage	80	852	4
022713	10:11	546	yate	81	3103	yate
022713	10:11	546	2yate	82	762	5
022713	10:11	546	yoop	83	3865	yoop
022713	10:11	546	11yoop	84	3365	4
022713	10:11	546	tutk	85	4732	tutk
022713	10:11	546	5tutk	86	1478	6
022713	10:11	546	life	87	2976	life
022713	10:11	546	12life	88	840	7
022713	10:11	546	woem	89	2755	woem
022713	10:11	546	4woem	90	1188	4
022713	10:11	546	silk	91	3130	silk
022713	10:11	546	19silk	92	467	6
022713	10:11	546	slin	93	3222	slin
022713	10:11	546	6slin	94	3172	4
022713	10:11	546	hay	95	3196	hay
022713	10:11	546	17hay	96	570	6
022713	10:11	546	tove	97	3161	tove
022713	10:11	546	3tove	98	945	5
022713	10:11	546	voke	99	2592	voke
022713	10:11	546	6voke	100	1607	6
022713	10:11	546	pill	101	2645	pill
022713	10:11	546	23pill	102	2025	6
022713	10:11	546	nofe	103	3118	nofe
022713	10:11	546	1nofe	104	1488	4
022713	10:11	546	jufe	105	3250	jufe
022713	10:11	546	24jufe	106	2095	7
022713	10:11	546	girl	107	2585	girl
022713	10:11	546	17girl	108	840	8
022713	10:11	546	neeb	109	2900	neeb
022713	10:11	546	3neeb	110	1598	3
022713	10:11	546	foof	111	3196	foof
022713	10:11	546	7foof	112	554	4
022713	10:11	546	flin	113	2722	flin
022713	10:11	546	6flin	114	979	6
022713	10:11	546	meef	115	2137	meef
022713	10:11	546	3meef	116	1211	4
022713	10:11	546	lool	117	3015	lool
022713	10:11	546	11lool	118	1797	5
022713	10:11	546	wasp	119	3339	wasp
022713	10:11	546	15wasp	120	756	4
022713	10:11	546	tomb	121	3107	tomb
022713	10:11	546	19tomb	122	2822	4
022713	10:11	546	mafe	123	2876	mafe
022713	10:11	546	2mafe	124	502	4
022713	10:11	546	snob	125	2744	snob
022713	10:11	546	18snob	126	592	3
022713	10:11	546	voop	127	2742	voop
022713	10:11	546	7voop	128	2119	4
022713	10:11	546	pluk	129	5344	pluk
022713	10:11	546	10pluk	130	1473	4
022713	10:11	546	obey	131	2356	obey
022713	10:11	546	14obey	132	724	5
022713	10:11	546	wac	133	2573	wac
022713	10:11	546	8wac	134	613	3
022713	10:11	546	bath	135	2809	bath
022713	10:11	546	15bath	136	1063	6
022713	10:11	546	leel	137	2858	leel
022713	10:11	546	3leel	138	1494	4
022713	10:11	546	aqil	139	4008	aqil
022713	10:11	546	24aqil	140	1759	5
022713	10:11	546	nilo	141	2511	nilo
022713	10:11	546	11nilo	142	1776	4
022713	10:11	546	nude	143	2695	nude
022713	10:11	546	13nude	144	1033	6
022713	10:11	546	soog	145	2677	soog
022713	10:11	546	7soog	146	1096	3
022713	10:11	546	cute	147	2370	cute
022713	10:11	546	15cute	148	401	6
022713	10:11	546	eat	149	2398	eat
022713	10:11	546	20eat	150	492	7
022713	10:11	546	zabe	151	3774	zabe
022713	10:11	546	9zabe	152	934	4
022713	10:11	546	baby	153	3038	baby
022713	10:11	546	15baby	154	548	7
022713	10:11	546	zafe	155	3899	zafe
022713	10:11	546	9zafe	156	558	4
022713	10:11	546	bowl	157	2837	bowl
022713	10:11	546	17bowl	158	490	6
022713	10:11	546	pom	159	5004	pom
022713	10:11	546	22pom	160	555	6
022713	10:11	546	joom	161	2323	joom
022713	10:11	546	11joom	162	796	4
022713	10:11	546	kige	163	2665	kige
022713	10:11	546	24kige	164	1221	6
022713	10:11	546	kabe	165	2498	kabe
022713	10:11	546	2kabe	166	1789	4
022713	10:11	546	seat	167	2571	seat
022713	10:11	546	20seat	168	1122	6
022713	10:11	546	vape	169	2763	vape
022713	10:11	546	2vape	170	1395	7
022713	10:11	546	dlip	171	5209	dlip
022713	10:11	546	6dlip	172	567	4
022713	10:11	546	fear	173	2694	fear
022713	10:11	546	21fear	174	2104	3
022713	10:11	546	song	175	1970	song
022713	10:11	546	18song	176	650	7
022713	10:11	546	lip	177	2285	lip
022713	10:11	546	22lip	178	608	6
022713	10:11	546	melb	179	2245	melb
022713	10:11	546	4melb	180	1298	4
022713	10:11	546	nuad	181	3843	nuad
022713	10:11	546	24nuad	182	1400	4
022713	10:11	546	hil	183	2877	hil
022713	10:11	546	10hil	184	1017	4
022713	10:11	546	jip	185	2173	jip
022713	10:11	546	22jip	186	581	4
022713	10:11	546	anay	187	2427	anay
022713	10:11	546	5anay	188	704	4
022713	10:11	546	lust	189	3393	lust
022713	10:11	546	12lust	190	2216	4
022713	10:11	546	tez	191	2037	tez
022713	10:11	546	8tez	192	2866	5
022713	10:11	546	yame	193	3141	yame
022713	10:11	546	5yame	194	998	4
022713	10:11	546	name	195	3548	name
022713	10:11	546	17name	196	1988	6
022713	10:11	546	dawn	197	3203	dawn
022713	10:11	546	14dawn	198	442	7
022713	10:11	546	sun	199	2957	sun
022713	10:11	546	19sun	200	2038	4
022713	10:11	546	arm	201	2386	arm
022713	10:11	546	14arm	202	2353	6
022713	10:11	546	pobe	203	3793	pobe
022713	10:11	546	1pobe	204	1512	5
022713	10:11	546	fish	205	2297	fish
022713	10:11	546	16fish	206	699	6
022713	10:11	546	lids	207	3285	lids
022713	10:11	546	12lids	208	592	6
022713	10:11	546	zest	209	3806	zest
022713	10:11	546	20zest	210	621	5
022713	10:11	546	celm	211	2865	celm
022713	10:11	546	24celm	212	629	6
022713	10:11	546	yip	213	3641	yip
022713	10:11	546	22yip	214	975	7
022713	10:11	546	noon	215	2821	noon
022713	10:11	546	23noon	216	827	6
022713	10:11	546	cell	217	2527	cell
022713	10:11	546	13cell	218	1624	6
022713	10:11	546	air	219	2845	air
022713	10:11	546	16air	220	1762	6
022713	10:11	546	veed	221	4289	veed
022713	10:11	546	9veed	222	1324	6
022713	10:11	546	wife	223	2405	wife
022713	10:11	546	14wife	224	923	7
022713	10:11	546	waf	225	2156	waf
022713	10:11	546	8waf	226	396	4
022713	10:11	546	lim	227	2322	lim
022713	10:11	546	10lim	228	835	6
022713	10:11	546	liar	229	2823	liar
022713	10:11	546	12liar	230	389	2
022713	10:11	546	bed	231	1939	bed
022713	10:11	546	21bed	232	524	9
022713	10:11	546	star	233	2092	star
022713	10:11	546	21star	234	495	8
022713	10:11	546	clim	235	2168	clim
022713	10:11	546	6clim	236	472	4
022713	10:11	546	alfi	237	2978	alfi
022713	10:11	546	4alfi	238	1105	3
022713	10:11	546	fat	239	2019	fat
022713	10:11	546	21fat	240	1312	4
022713	10:57	54	speed	1	19485	56
022713	10:57	54	error	2	3216	100
022713	10:57	54	whichhand	3	7581	Right
022713	10:57	54	yane	1	4748	yane
022713	10:57	54	5yane	2	2734	5
022713	10:57	54	army	3	3670	army
022713	10:57	54	13army	4	5283	3
022713	10:57	54	beeg	5	3701	beeg
022713	10:57	54	9beeg	6	2017	6
022713	10:57	54	lion	7	3517	lion
022713	10:57	54	23lion	8	4536	6
022713	10:57	54	taxe	9	4088	taxe
022713	10:57	54	8taxe	10	6917	4
022713	10:57	54	pest	11	2782	pest
022713	10:57	54	14pest	12	2982	3
022713	10:57	54	sour	13	2660	sour
022713	10:57	54	18sour	14	3185	5
022713	10:57	54	jame	15	2575	jame
022713	10:57	54	5jame	16	1696	5
022713	10:57	54	ugly	17	2344	ugly
022713	10:57	54	19ugly	18	1585	2
022713	10:57	54	mom	19	2279	mom
022713	10:57	54	23mom	20	1155	9
022713	10:57	54	lake	21	3249	lake
022713	10:57	54	16lake	22	9910	6
022713	10:57	54	bees	23	2505	bees
022713	10:57	54	21bees	24	5060	4
022713	10:57	54	nip	25	3040	nip
022713	10:57	54	22nip	26	2805	5
022713	10:57	54	nop	27	2307	nop
022713	10:57	54	10nop	28	4469	6
022713	10:57	54	blue	29	2305	blue
022713	10:57	54	18blue	30	3891	7
022713	10:57	54	cold	31	2831	cold
022713	10:57	54	19cold	32	1564	2
022713	10:57	54	lice	33	2707	lice
022713	10:57	54	13lice	34	4149	1
022713	10:57	54	dax	35	2693	dax
022713	10:57	54	8dax	36	3336	5
022713	10:57	54	plin	37	2481	plin
022713	10:57	54	10plin	38	1508	6
022713	10:57	54	lump	39	2510	lump
022713	10:57	54	23lump	40	2487	4
022713	10:57	54	win	41	1858	win
022713	10:57	54	18win	42	3254	8
022713	10:57	54	jabe	43	2162	jabe
022713	10:57	54	2jabe	44	1170	7
022713	10:57	54	yofe	45	2904	yofe
022713	10:57	54	1yofe	46	1931	7
022713	10:57	54	soob	47	2035	soob
022713	10:57	54	7soob	48	3688	6
022713	10:57	54	slap	49	2043	slap
022713	10:57	54	16slap	50	712	3
022713	10:57	54	nobe	51	1872	nobe
022713	10:57	54	1nobe	52	996	5
022713	10:57	54	frog	53	2433	frog
022713	10:57	54	15frog	54	4326	6
022713	10:57	54	more	55	2287	more
022713	10:57	54	12more	56	2082	7
022713	10:57	54	hide	57	2917	hide
022713	10:57	54	13hide	58	2718	4
022713	10:57	54	peka	59	2584	peka
022713	10:57	54	4peka	60	871	7
022713	10:57	54	scar	61	3617	scar
022713	10:57	54	20scar	62	3936	4
022713	10:57	54	cow	63	3137	cow
022713	10:57	54	16cow	64	1642	8
022713	10:57	54	pems	65	4342	pems
022713	10:57	54	4pems	66	3479	7
022713	10:57	54	yeet	67	2994	yeet
022713	10:57	54	3yeet	68	2848	7
022713	10:57	54	sad	69	2597	sad
022713	10:57	54	20sad	70	2506	2
022713	10:57	54	wish	71	2149	wish
022713	10:57	54	17wish	72	3101	7
022713	10:57	54	lik	73	2887	lik
022713	10:57	54	11lik	74	2114	5
022713	10:57	54	jobe	75	2211	jobe
022713	10:57	54	1jobe	76	4089	6
022713	10:57	54	voom	77	3372	voom
022713	10:57	54	7voom	78	1436	7
022713	10:57	54	tage	79	2009	tage
022713	10:57	54	9tage	80	1679	5
022713	10:57	54	yate	81	2449	yate
022713	10:57	54	2yate	82	1549	6
022713	10:57	54	yoop	83	2957	yoop
022713	10:57	54	11yoop	84	2421	7
022713	10:57	54	tutk	85	4898	tutk
022713	10:57	54	5tutk	86	1422	5
022713	10:57	54	life	87	1811	life
022713	10:57	54	12life	88	2704	8
022713	10:57	54	woem	89	4498	woem
022713	10:57	54	4woem	90	3893	3
022713	10:57	54	silk	91	2719	silk
022713	10:57	54	19silk	92	2137	7
022713	10:57	54	slin	93	3314	slin
022713	10:57	54	6slin	94	2043	4
022713	10:57	54	hay	95	1647	hay
022713	10:57	54	17hay	96	1908	6
022713	10:57	54	tove	97	1605	tove
022713	10:57	54	3tove	98	1971	6
022713	10:57	54	voke	99	2570	voke
022713	10:57	54	6voke	100	810	4
022713	10:57	54	pill	101	2847	pill
022713	10:57	54	23pill	102	3659	5
022713	10:57	54	nofe	103	1623	nofe
022713	10:57	54	1nofe	104	2804	5
022713	10:57	54	jufe	105	1986	jufe
022713	10:57	54	24jufe	106	1057	3
022713	10:57	54	girl	107	2469	girl
022713	10:57	54	17girl	108	2808	7
022713	10:57	54	neeb	109	2462	neeb
022713	10:57	54	3neeb	110	2642	6
022713	10:57	54	foof	111	2023	foof
022713	10:57	54	7foof	112	2212	7
022713	10:57	54	flin	113	3025	flin
022713	10:57	54	6flin	114	2382	6
022713	10:57	54	meef	115	3101	meef
022713	10:57	54	3meef	116	1240	7
022713	10:57	54	lool	117	2076	lool
022713	10:57	54	11lool	118	1519	8
022713	10:57	54	wasp	119	3887	wasp
022713	10:57	54	15wasp	120	779	2
022713	10:57	54	tomb	121	4202	tomb
022713	10:57	54	19tomb	122	4784	2
022713	10:57	54	mafe	123	6375	mafe
022713	10:57	54	2mafe	124	1720	4
022713	10:57	54	snob	125	2121	snob
022713	10:57	54	18snob	126	1170	1
022713	10:57	54	voop	127	2200	voop
022713	10:57	54	7voop	128	815	8
022713	10:57	54	pluk	129	2364	pluk
022713	10:57	54	10pluk	130	2043	4
022713	10:57	54	obey	131	2799	obey
022713	10:57	54	14obey	132	5486	5
022713	10:57	54	wac	133	1665	wac
022713	10:57	54	8wac	134	725	5
022713	10:57	54	bath	135	2053	bath
022713	10:57	54	15bath	136	1202	8
022713	10:57	54	leel	137	1791	leel
022713	10:57	54	3leel	138	606	7
022713	10:57	54	aqil	139	4323	aqil
022713	10:57	54	24aqil	140	1358	6
022713	10:57	54	nilo	141	2021	nilo
022713	10:57	54	11nilo	142	1211	4
022713	10:57	54	nude	143	2151	nude
022713	10:57	54	13nude	144	2328	6
022713	10:57	54	soog	145	1960	soog
022713	10:57	54	7soog	146	1096	3
022713	10:57	54	cute	147	2217	cute
022713	10:57	54	15cute	148	1055	9
022713	10:57	54	eat	149	1474	eat
022713	10:57	54	20eat	150	2022	7
022713	10:57	54	zabe	151	2987	zabe
022713	10:57	54	9zabe	152	2762	6
022713	10:57	54	baby	153	1825	baby
022713	10:57	54	15baby	154	2639	5
022713	10:57	54	zafe	155	3499	zafe
022713	10:57	54	9zafe	156	1742	6
022713	10:57	54	bowl	157	2590	bowl
022713	10:57	54	17bowl	158	2653	5
022713	10:57	54	pom	159	2849	pom
022713	10:57	54	22pom	160	1614	6
022713	10:57	54	joom	161	2075	joom
022713	10:57	54	11joom	162	566	8
022713	10:57	54	kige	163	1973	kige
022713	10:57	54	24kige	164	2501	8
022713	10:57	54	kabe	165	2311	kabe
022713	10:57	54	2kabe	166	2000	6
022713	10:57	54	seat	167	1574	seat
022713	10:57	54	20seat	168	693	8
022713	10:57	54	vape	169	2911	vape
022713	10:57	54	2vape	170	1928	4
022713	10:57	54	dlip	171	2505	dlip
022713	10:57	54	6dlip	172	683	8
022713	10:57	54	fear	173	1973	fear
022713	10:57	54	21fear	174	837	1
022713	10:57	54	song	175	1785	song
022713	10:57	54	18song	176	1207	9
022713	10:57	54	lip	177	1581	lip
022713	10:57	54	22lip	178	1148	7
022713	10:57	54	melb	179	2227	melb
022713	10:57	54	4melb	180	1280	7
022713	10:57	54	nuad	181	2843	nuad
022713	10:57	54	24nuad	182	1455	3
022713	10:57	54	hil	183	1610	hil
022713	10:57	54	10hil	184	2528	5
022713	10:57	54	jip	185	1681	jip
022713	10:57	54	22jip	186	1307	3
022713	10:57	54	anay	187	1997	anay
022713	10:57	54	5anay	188	2331	6
022713	10:57	54	lust	189	3836	lust
022713	10:57	54	12lust	190	521	5
022713	10:57	54	tez	191	3178	tez
022713	10:57	54	8tez	192	1921	5
022713	10:57	54	yame	193	2706	yame
022713	10:57	54	5yame	194	580	6
022713	10:57	54	name	195	2178	name
022713	10:57	54	17name	196	665	8
022713	10:57	54	dawn	197	2436	dawm
022713	10:57	54	14dawn	198	585	4
022713	10:57	54	sun	199	1983	sun
022713	10:57	54	19sun	200	518	8
022713	10:57	54	arm	201	1566	arm
022713	10:57	54	14arm	202	454	6
022713	10:57	54	pobe	203	1513	pobe
022713	10:57	54	1pobe	204	754	4
022713	10:57	54	fish	205	1458	fish
022713	10:57	54	16fish	206	638	6
022713	10:57	54	lids	207	1986	lids
022713	10:57	54	12lids	208	1761	7
022713	10:57	54	zest	209	2144	zest
022713	10:57	54	20zest	210	456	7
022713	10:57	54	celm	211	2299	celm
022713	10:57	54	24celm	212	693	3
022713	10:57	54	yip	213	1911	yip
022713	10:57	54	22yip	214	1320	4
022713	10:57	54	noon	215	2057	noon
022713	10:57	54	23noon	216	1126	4
022713	10:57	54	cell	217	2750	cell
022713	10:57	54	13cell	218	439	5
022713	10:57	54	air	219	1619	air
022713	10:57	54	16air	220	672	7
022713	10:57	54	veed	221	2899	veed
022713	10:57	54	9veed	222	949	4
022713	10:57	54	wife	223	1677	sife
022713	10:57	54	14wife	224	3047	7
022713	10:57	54	waf	225	1564	waf
022713	10:57	54	8waf	226	843	4
022713	10:57	54	lim	227	1494	lim
022713	10:57	54	10lim	228	1264	8
022713	10:57	54	liar	229	1435	liar
022713	10:57	54	12liar	230	536	2
022713	10:57	54	bed	231	1408	bed
022713	10:57	54	21bed	232	1214	9
022713	10:57	54	star	233	2354	star
022713	10:57	54	21star	234	571	9
022713	10:57	54	clim	235	1777	clim
022713	10:57	54	6clim	236	600	4
022713	10:57	54	alfi	237	1878	alfi
022713	10:57	54	4alfi	238	696	4
022713	10:57	54	fat	239	1298	fat
022713	10:57	54	21fat	240	1795	2
030413	10:50	894	speed	1	3023	38
030413	10:50	894	error	2	2523	94
030413	10:50	894	whichhand	3	7741	right
030413	10:50	894	yane	1	6309	yane
030413	10:50	894	5yane	2	4312	5
030413	10:50	894	army	3	5794	army
030413	10:50	894	13army	4	7745	4
030413	10:50	894	beeg	5	4235	beeg
030413	10:50	894	9beeg	6	1025	5
030413	10:50	894	lion	7	3765	lion
030413	10:50	894	23lion	8	1245	7
030413	10:50	894	taxe	9	3880	taxe
030413	10:50	894	8taxe	10	852	5
030413	10:50	894	pest	11	3632	pest
030413	10:50	894	14pest	12	1045	1
030413	10:50	894	sour	13	3352	sour
030413	10:50	894	18sour	14	2353	2
030413	10:50	894	jame	15	3249	jame
030413	10:50	894	5jame	16	766	5
030413	10:50	894	ugly	17	3420	ugly
030413	10:50	894	19ugly	18	690	1
030413	10:50	894	mom	19	3004	mom
030413	10:50	894	23mom	20	1011	9
030413	10:50	894	lake	21	2920	lake
030413	10:50	894	16lake	22	793	9
030413	10:50	894	bees	23	3095	bees
030413	10:50	894	21bees	24	945	2
030413	10:50	894	nip	25	2945	nip
030413	10:50	894	22nip	26	697	5
030413	10:50	894	nop	27	3083	nop
030413	10:50	894	10nop	28	726	5
030413	10:50	894	blue	29	3526	blue
030413	10:50	894	18blue	30	1880	6
030413	10:50	894	cold	31	3010	cold
030413	10:50	894	19cold	32	2000	2
030413	10:50	894	lice	33	3390	lice
030413	10:50	894	13lice	34	885	1
030413	10:50	894	dax	35	2543	dax
030413	10:50	894	8dax	36	799	5
030413	10:50	894	plin	37	3213	plin
030413	10:50	894	10plin	38	603	5
030413	10:50	894	lump	39	3032	lump
030413	10:50	894	23lump	40	757	2
030413	10:50	894	win	41	2725	win
030413	10:50	894	18win	42	1118	9
030413	10:50	894	jabe	43	3319	jabe
030413	10:50	894	2jabe	44	945	5
030413	10:50	894	yofe	45	4097	yofe
030413	10:50	894	1yofe	46	851	5
030413	10:50	894	soob	47	3743	soob
030413	10:50	894	7soob	48	647	5
030413	10:50	894	slap	49	3107	slap
030413	10:50	894	16slap	50	646	2
030413	10:50	894	nobe	51	4041	nobe
030413	10:50	894	1nobe	52	638	5
030413	10:50	894	frog	53	2634	frog
030413	10:50	894	15frog	54	912	4
030413	10:50	894	more	55	2640	more
030413	10:50	894	12more	56	717	6
030413	10:50	894	hide	57	2590	hide
030413	10:50	894	13hide	58	1213	3
030413	10:50	894	peka	59	3082	peka
030413	10:50	894	4peka	60	2189	5
030413	10:50	894	scar	61	2604	scar
030413	10:50	894	20scar	62	1202	1
030413	10:50	894	cow	63	3056	cow
030413	10:50	894	16cow	64	1132	7
030413	10:50	894	pems	65	3780	pems
030413	10:50	894	4pems	66	516	5
030413	10:50	894	yeet	67	3468	yeet
030413	10:50	894	3yeet	68	1344	5
030413	10:50	894	sad	69	4488	sad
030413	10:50	894	20sad	70	571	1
030413	10:50	894	wish	71	2738	wish
030413	10:50	894	17wish	72	1051	8
030413	10:50	894	lik	73	2647	lik
030413	10:50	894	11lik	74	739	5
030413	10:50	894	jobe	75	3179	jobe
030413	10:50	894	1jobe	76	1786	5
030413	10:50	894	voom	77	3953	voom
030413	10:50	894	7voom	78	577	6
030413	10:50	894	tage	79	3279	tage
030413	10:50	894	9tage	80	667	5
030413	10:50	894	yate	81	4797	yate
030413	10:50	894	2yate	82	716	4
030413	10:50	894	yoop	83	2661	yoop
030413	10:50	894	11yoop	84	961	6
030413	10:50	894	tutk	85	2695	tutk
030413	10:50	894	5tutk	86	578	5
030413	10:50	894	life	87	5240	life
030413	10:50	894	12life	88	734	9
030413	10:50	894	woem	89	3422	woem
030413	10:50	894	4woem	90	892	6
030413	10:50	894	silk	91	3374	silk
030413	10:50	894	19silk	92	1238	8
030413	10:50	894	slin	93	2842	slin
030413	10:50	894	6slin	94	606	5
030413	10:50	894	hay	95	2636	hay
030413	10:50	894	17hay	96	857	6
030413	10:50	894	tove	97	2668	tove
030413	10:50	894	3tove	98	536	5
030413	10:50	894	voke	99	2616	voke
030413	10:50	894	6voke	100	958	5
030413	10:50	894	pill	101	2717	pill
030413	10:50	894	23pill	102	1391	2
030413	10:50	894	nofe	103	3613	nofe
030413	10:50	894	1nofe	104	939	5
030413	10:50	894	jufe	105	3259	jufe
030413	10:50	894	24jufe	106	695	5
030413	10:50	894	girl	107	3304	girl
030413	10:50	894	17girl	108	1355	7
030413	10:50	894	neeb	109	3155	neeb
030413	10:50	894	3neeb	110	1411	5
030413	10:50	894	foof	111	3072	foof
030413	10:50	894	7foof	112	604	6
030413	10:50	894	flin	113	3233	flin
030413	10:50	894	6flin	114	534	5
030413	10:50	894	meef	115	3116	meef
030413	10:50	894	3meef	116	1097	4
030413	10:50	894	lool	117	3058	lool
030413	10:50	894	11lool	118	774	6
030413	10:50	894	wasp	119	3437	wasp
030413	10:50	894	15wasp	120	659	1
030413	10:50	894	tomb	121	2662	tomb
030413	10:50	894	19tomb	122	1058	2
030413	10:50	894	mafe	123	3317	mafe
030413	10:50	894	2mafe	124	615	5
030413	10:50	894	snob	125	3667	snob
030413	10:50	894	18snob	126	896	1
030413	10:50	894	voop	127	5025	voop
030413	10:50	894	7voop	128	1847	5
030413	10:50	894	pluk	129	3043	pluk
030413	10:50	894	10pluk	130	575	3
030413	10:50	894	obey	131	3174	obey
030413	10:50	894	14obey	132	790	6
030413	10:50	894	wac	133	2724	wac
030413	10:50	894	8wac	134	613	4
030413	10:50	894	bath	135	2426	bath
030413	10:50	894	15bath	136	775	9
030413	10:50	894	leel	137	2766	leel
030413	10:50	894	3leel	138	510	5
030413	10:50	894	aqil	139	2631	aqil
030413	10:50	894	24aqil	140	716	6
030413	10:50	894	nilo	141	2573	nilo
030413	10:50	894	11nilo	142	1084	5
030413	10:50	894	nude	143	4494	nude
030413	10:50	894	13nude	144	1521	8
030413	10:50	894	soog	145	4410	soog
030413	10:50	894	7soog	146	457	5
030413	10:50	894	cute	147	2732	cute
030413	10:50	894	15cute	148	1125	8
030413	10:50	894	eat	149	2190	eat
030413	10:50	894	20eat	150	1005	9
030413	10:50	894	zabe	151	3330	zabe
030413	10:50	894	9zabe	152	1443	5
030413	10:50	894	baby	153	2343	baby
030413	10:50	894	15baby	154	967	6
030413	10:50	894	zafe	155	2358	zafe
030413	10:50	894	9zafe	156	790	5
030413	10:50	894	bowl	157	2820	bowl
030413	10:50	894	17bowl	158	2178	6
030413	10:50	894	pom	159	2377	pom
030413	10:50	894	22pom	160	535	6
030413	10:50	894	joom	161	3208	joom
030413	10:50	894	11joom	162	646	6
030413	10:50	894	kige	163	2994	kige
030413	10:50	894	24kige	164	1048	5
030413	10:50	894	kabe	165	3260	kabe
030413	10:50	894	2kabe	166	616	5
030413	10:50	894	seat	167	2588	seat
030413	10:50	894	20seat	168	2035	7
030413	10:50	894	vape	169	3536	vape
030413	10:50	894	2vape	170	521	5
030413	10:50	894	dlip	171	3497	dlip
030413	10:50	894	6dlip	172	1140	5
030413	10:50	894	fear	173	2804	fear
030413	10:50	894	21fear	174	931	1
030413	10:50	894	song	175	2747	song
030413	10:50	894	18song	176	772	7
030413	10:50	894	lip	177	1946	lip
030413	10:50	894	22lip	178	1122	8
030413	10:50	894	melb	179	3043	melb
030413	10:50	894	4melb	180	663	7
030413	10:50	894	nuad	181	3786	nuad
030413	10:50	894	24nuad	182	594	5
030413	10:50	894	hil	183	2391	hil
030413	10:50	894	10hil	184	678	5
030413	10:50	894	jip	185	2639	jip
030413	10:50	894	22jip	186	781	5
030413	10:50	894	anay	187	3139	anay
030413	10:50	894	5anay	188	733	5
030413	10:50	894	lust	189	3020	lust
030413	10:50	894	12lust	190	1170	8
030413	10:50	894	tez	191	4049	tez
030413	10:50	894	8tez	192	782	5
030413	10:50	894	yame	193	2596	yame
030413	10:50	894	5yame	194	642	5
030413	10:50	894	name	195	3318	name
030413	10:50	894	17name	196	1968	6
030413	10:50	894	dawn	197	3888	dawn
030413	10:50	894	14dawn	198	1067	7
030413	10:50	894	sun	199	2149	sun
030413	10:50	894	19sun	200	1110	9
030413	10:50	894	arm	201	2527	arm
030413	10:50	894	14arm	202	664	7
030413	10:50	894	pobe	203	3922	pobe
030413	10:50	894	1pobe	204	757	6
030413	10:50	894	fish	205	3260	fish
030413	10:50	894	16fish	206	928	2
030413	10:50	894	lids	207	3048	lids
030413	10:50	894	12lids	208	604	6
030413	10:50	894	zest	209	3113	zest
030413	10:50	894	20zest	210	612	5
030413	10:50	894	celm	211	2984	celm
030413	10:50	894	24celm	212	559	5
030413	10:50	894	yip	213	2166	yip
030413	10:50	894	22yip	214	758	6
030413	10:50	894	noon	215	2470	noon
030413	10:50	894	23noon	216	801	8
030413	10:50	894	cell	217	2407	cell
030413	10:50	894	13cell	218	941	2
030413	10:50	894	air	219	2437	air
030413	10:50	894	16air	220	1266	8
030413	10:50	894	veed	221	2885	veed
030413	10:50	894	9veed	222	1672	6
030413	10:50	894	wife	223	3139	wife
030413	10:50	894	14wife	224	1180	8
030413	10:50	894	waf	225	2299	waf
030413	10:50	894	8waf	226	533	5
030413	10:50	894	lim	227	2293	lim
030413	10:50	894	10lim	228	679	6
030413	10:50	894	liar	229	2273	liar
030413	10:50	894	12liar	230	861	1
030413	10:50	894	bed	231	2167	bed
030413	10:50	894	21bed	232	599	9
030413	10:50	894	star	233	2084	star
030413	10:50	894	21star	234	575	9
030413	10:50	894	clim	235	7158	clim
030413	10:50	894	6clim	236	1031	5
030413	10:50	894	alfi	237	5451	alfi
030413	10:50	894	4alfi	238	497	5
030413	10:50	894	fat	239	2074	fat
030413	10:50	894	21fat	240	701	2
032013	10:04	5465	speed	1	3065	55
032013	10:04	5465	error	2	3151	98
032013	10:04	5465	whichhand	3	10055	Right
032013	10:04	5465	yane	1	6229	yane
032013	10:04	5465	5yane	2	7171	5
032013	10:04	5465	army	3	5956	army
032013	10:04	5465	13army	4	3246	3
032013	10:04	5465	beeg	5	3482	beeg
032013	10:04	5465	9beeg	6	4005	3
032013	10:04	5465	lion	7	3899	lion
032013	10:04	5465	23lion	8	1742	8
032013	10:04	5465	taxe	9	6071	taxe
032013	10:04	5465	8taxe	10	3915	2
032013	10:04	5465	pest	11	3206	pest
032013	10:04	5465	14pest	12	1876	6
032013	10:04	5465	sour	13	3270	sour
032013	10:04	5465	18sour	14	2818	7
032013	10:04	5465	jame	15	2919	jame
032013	10:04	5465	5jame	16	2977	6
032013	10:04	5465	ugly	17	3072	ugly
032013	10:04	5465	19ugly	18	1860	2
032013	10:04	5465	mom	19	2623	mom
032013	10:04	5465	23mom	20	1509	1
032013	10:04	5465	lake	21	2558	lake
032013	10:04	5465	16lake	22	7351	8
032013	10:04	5465	bees	23	3080	bees
032013	10:04	5465	21bees	24	2099	7
032013	10:04	5465	nip	25	2837	nip
032013	10:04	5465	22nip	26	2610	6
032013	10:04	5465	nop	27	3103	nop
032013	10:04	5465	10nop	28	786	5
032013	10:04	5465	blue	29	3312	blue
032013	10:04	5465	18blue	30	914	8
032013	10:04	5465	cold	31	2267	cold
032013	10:04	5465	19cold	32	1359	2
032013	10:04	5465	lice	33	2598	lice
032013	10:04	5465	13lice	34	700	1
032013	10:04	5465	dax	35	2918	dax
032013	10:04	5465	8dax	36	1623	5
032013	10:04	5465	plin	37	4340	plin
032013	10:04	5465	10plin	38	1566	5
032013	10:04	5465	lump	39	3741	lump
032013	10:04	5465	23lump	40	3134	3
032013	10:04	5465	win	41	3783	win
032013	10:04	5465	18win	42	1023	6
032013	10:04	5465	jabe	43	3323	jabe
032013	10:04	5465	2jabe	44	861	5
032013	10:04	5465	yofe	45	3248	yofe
032013	10:04	5465	1yofe	46	3876	5
032013	10:04	5465	soob	47	3439	soob
032013	10:04	5465	7soob	48	1932	5
032013	10:04	5465	slap	49	3245	slap
032013	10:04	5465	16slap	50	3441	2
032013	10:04	5465	nobe	51	4798	nobe
032013	10:04	5465	1nobe	52	525	5
032013	10:04	5465	frog	53	3022	frog
032013	10:04	5465	15frog	54	564	5
032013	10:04	5465	more	55	3307	more
032013	10:04	5465	12more	56	565	5
032013	10:04	5465	hide	57	3051	hide
032013	10:04	5465	13hide	58	2160	6
032013	10:04	5465	peka	59	2839	peka
032013	10:04	5465	4peka	60	1780	6
032013	10:04	5465	scar	61	4194	scar
032013	10:04	5465	20scar	62	6849	6
032013	10:04	5465	cow	63	2990	cow
032013	10:04	5465	16cow	64	918	7
032013	10:04	5465	pems	65	3846	pems
032013	10:04	5465	4pems	66	1227	5
032013	10:04	5465	yeet	67	2591	yeet
032013	10:04	5465	3yeet	68	1774	5
032013	10:04	5465	sad	69	2341	sad
032013	10:04	5465	20sad	70	2535	2
032013	10:04	5465	wish	71	2583	wish
032013	10:04	5465	17wish	72	4582	7
032013	10:04	5465	lik	73	3285	lik
032013	10:04	5465	11lik	74	2176	4
032013	10:04	5465	jobe	75	3175	jobe
032013	10:04	5465	1jobe	76	575	6
032013	10:04	5465	voom	77	2981	voom
032013	10:04	5465	7voom	78	1613	7
032013	10:04	5465	tage	79	3514	tage
032013	10:04	5465	9tage	80	1748	5
032013	10:04	5465	yate	81	4715	yate
032013	10:04	5465	2yate	82	966	5
032013	10:04	5465	yoop	83	3365	yoop
032013	10:04	5465	11yoop	84	628	5
032013	10:04	5465	tutk	85	3232	tutk
032013	10:04	5465	5tutk	86	582	6
032013	10:04	5465	life	87	2692	life
032013	10:04	5465	12life	88	1591	9
032013	10:04	5465	woem	89	3869	woem
032013	10:04	5465	4woem	90	609	5
032013	10:04	5465	silk	91	3039	silk
032013	10:04	5465	19silk	92	716	8
032013	10:04	5465	slin	93	2788	slin
032013	10:04	5465	6slin	94	836	3
032013	10:04	5465	hay	95	3440	hay
032013	10:04	5465	17hay	96	829	7
032013	10:04	5465	tove	97	2841	tove
032013	10:04	5465	3tove	98	486	5
032013	10:04	5465	voke	99	3136	voke
032013	10:04	5465	6voke	100	897	6
032013	10:04	5465	pill	101	3539	pill
032013	10:04	5465	23pill	102	636	2
032013	10:04	5465	nofe	103	2992	nofe
032013	10:04	5465	1nofe	104	5223	4
032013	10:04	5465	jufe	105	3348	jufe
032013	10:04	5465	24jufe	106	709	5
032013	10:04	5465	girl	107	2686	girl
032013	10:04	5465	17girl	108	658	8
032013	10:04	5465	neeb	109	3007	neeb
032013	10:04	5465	3neeb	110	524	5
032013	10:04	5465	foof	111	3140	foof
032013	10:04	5465	7foof	112	3917	7
032013	10:04	5465	flin	113	3511	flin
032013	10:04	5465	6flin	114	2553	6
032013	10:04	5465	meef	115	2569	meef
032013	10:04	5465	3meef	116	593	3
032013	10:04	5465	lool	117	3935	lool
032013	10:04	5465	11lool	118	1176	7
032013	10:04	5465	wasp	119	2982	wasp
032013	10:04	5465	15wasp	120	941	3
032013	10:04	5465	tomb	121	3054	tomb
032013	10:04	5465	19tomb	122	2570	8
032013	10:04	5465	mafe	123	2834	mafe
032013	10:04	5465	2mafe	124	1526	5
032013	10:04	5465	snob	125	3063	snob
032013	10:04	5465	18snob	126	571	2
032013	10:04	5465	voop	127	3065	voop
032013	10:04	5465	7voop	128	1901	5
032013	10:04	5465	pluk	129	3231	pluk
032013	10:04	5465	10pluk	130	1108	3
032013	10:04	5465	obey	131	3198	obey
032013	10:04	5465	14obey	132	980	5
032013	10:04	5465	wac	133	3026	wac
032013	10:04	5465	8wac	134	719	5
032013	10:04	5465	bath	135	4016	bath
032013	10:04	5465	15bath	136	614	8
032013	10:04	5465	leel	137	3571	leel
032013	10:04	5465	3leel	138	483	5
032013	10:04	5465	aqil	139	3997	aquil
032013	10:04	5465	24aqil	140	1100	5
032013	10:04	5465	nilo	141	2589	nilo
032013	10:04	5465	11nilo	142	716	6
032013	10:04	5465	nude	143	2717	nude
032013	10:04	5465	13nude	144	439	5
032013	10:04	5465	soog	145	2443	soog
032013	10:04	5465	7soog	146	1383	5
032013	10:04	5465	cute	147	2349	cute
032013	10:04	5465	15cute	148	614	8
032013	10:04	5465	eat	149	2426	eat
032013	10:04	5465	20eat	150	1934	7
032013	10:04	5465	zabe	151	2903	zabe
032013	10:04	5465	9zabe	152	2505	6
032013	10:04	5465	baby	153	2475	baby
032013	10:04	5465	15baby	154	2526	7
032013	10:04	5465	zafe	155	4191	zafe
032013	10:04	5465	9zafe	156	2671	5
032013	10:04	5465	bowl	157	2794	bowl
032013	10:04	5465	17bowl	158	2136	6
032013	10:04	5465	pom	159	4417	pom
032013	10:04	5465	22pom	160	671	5
032013	10:04	5465	joom	161	3410	joom
032013	10:04	5465	11joom	162	6200	6
032013	10:04	5465	kige	163	3263	kige
032013	10:04	5465	24kige	164	371	5
032013	10:04	5465	kabe	165	3849	kabe
032013	10:04	5465	2kabe	166	2206	6
032013	10:04	5465	seat	167	3252	seat
032013	10:04	5465	20seat	168	2321	6
032013	10:04	5465	vape	169	3450	vape
032013	10:04	5465	2vape	170	719	6
032013	10:04	5465	dlip	171	3319	dlip
032013	10:04	5465	6dlip	172	1065	5
032013	10:04	5465	fear	173	2740	fear
032013	10:04	5465	21fear	174	621	7
032013	10:04	5465	song	175	2297	song
032013	10:04	5465	18song	176	4124	8
032013	10:04	5465	lip	177	2709	lip
032013	10:04	5465	22lip	178	4775	8
032013	10:04	5465	melb	179	3399	melb
032013	10:04	5465	4melb	180	1565	5
032013	10:04	5465	nuad	181	2748	nuad
032013	10:04	5465	24nuad	182	1637	5
032013	10:04	5465	hil	183	3609	hil
032013	10:04	5465	10hil	184	495	5
032013	10:04	5465	jip	185	2528	jip
032013	10:04	5465	22jip	186	1746	2
032013	10:04	5465	anay	187	2977	anay
032013	10:04	5465	5anay	188	768	7
032013	10:04	5465	lust	189	2831	lust
032013	10:04	5465	12lust	190	508	2
032013	10:04	5465	tez	191	6053	tez
032013	10:04	5465	8tez	192	2619	5
032013	10:04	5465	yame	193	4896	yame
032013	10:04	5465	5yame	194	515	5
032013	10:04	5465	name	195	2628	name
032013	10:04	5465	17name	196	529	6
032013	10:04	5465	dawn	197	2569	dawn
032013	10:04	5465	14dawn	198	1105	9
032013	10:04	5465	sun	199	2362	sun
032013	10:04	5465	19sun	200	674	8
032013	10:04	5465	arm	201	2349	arm
032013	10:04	5465	14arm	202	1805	8
032013	10:04	5465	pobe	203	3201	pobe
032013	10:04	5465	1pobe	204	1649	5
032013	10:04	5465	fish	205	3020	fish
032013	10:04	5465	16fish	206	915	7
032013	10:04	5465	lids	207	3715	lids
032013	10:04	5465	12lids	208	8517	5
032013	10:04	5465	zest	209	5041	zest
032013	10:04	5465	20zest	210	2102	3
032013	10:04	5465	celm	211	2776	celm
032013	10:04	5465	24celm	212	1831	7
032013	10:04	5465	yip	213	2955	yip
032013	10:04	5465	22yip	214	572	6
032013	10:04	5465	noon	215	2763	noon
032013	10:04	5465	23noon	216	2394	8
032013	10:04	5465	cell	217	2944	cell
032013	10:04	5465	13cell	218	745	4
032013	10:04	5465	air	219	1984	air
032013	10:04	5465	16air	220	527	8
032013	10:04	5465	veed	221	3991	veed
032013	10:04	5465	9veed	222	783	4
032013	10:04	5465	wife	223	2117	wife
032013	10:04	5465	14wife	224	1134	9
032013	10:04	5465	waf	225	2390	waf
032013	10:04	5465	8waf	226	4149	4
032013	10:04	5465	lim	227	2766	lim
032013	10:04	5465	10lim	228	1061	5
032013	10:04	5465	liar	229	3832	liar
032013	10:04	5465	12liar	230	1582	4
032013	10:04	5465	bed	231	2252	bed
032013	10:04	5465	21bed	232	568	8
032013	10:04	5465	star	233	2703	star
032013	10:04	5465	21star	234	2441	8
032013	10:04	5465	clim	235	3054	clim
032013	10:04	5465	6clim	236	882	5
032013	10:04	5465	alfi	237	3964	alfi
032013	10:04	5465	4alfi	238	3189	3
032013	10:04	5465	fat	239	4483	fat
032013	10:04	5465	21fat	240	5039	2
032013	10:54	5619	speed	1	2740	46
032013	10:54	5619	error	2	2571	91
032013	10:54	5619	whichhand	3	9810	Right
032013	10:54	5619	yane	1	4458	yane
032013	10:54	5619	5yane	2	5119	5
032013	10:54	5619	army	3	3057	army
032013	10:54	5619	13army	4	2453	5
032013	10:54	5619	beeg	5	2313	beeg
032013	10:54	5619	9beeg	6	2386	5
032013	10:54	5619	lion	7	2521	lion
032013	10:54	5619	23lion	8	3771	4
032013	10:54	5619	taxe	9	2427	taxe
032013	10:54	5619	8taxe	10	2552	6
032013	10:54	5619	pest	11	2128	past
032013	10:54	5619	14pest	12	2745	2
032013	10:54	5619	sour	13	2585	sour
032013	10:54	5619	18sour	14	3384	2
032013	10:54	5619	jame	15	2535	jame
032013	10:54	5619	5jame	16	1896	3
032013	10:54	5619	ugly	17	2217	ugly
032013	10:54	5619	19ugly	18	1599	5
032013	10:54	5619	mom	19	2229	mom
032013	10:54	5619	23mom	20	3386	9
032013	10:54	5619	lake	21	1905	lake
032013	10:54	5619	16lake	22	2035	7
032013	10:54	5619	bees	23	2295	bees
032013	10:54	5619	21bees	24	1657	6
032013	10:54	5619	nip	25	2269	nip
032013	10:54	5619	22nip	26	1433	6
032013	10:54	5619	nop	27	3533	nop
032013	10:54	5619	10nop	28	3510	5
032013	10:54	5619	blue	29	2408	blue
032013	10:54	5619	18blue	30	2870	5
032013	10:54	5619	cold	31	2441	cold
032013	10:54	5619	19cold	32	1854	3
032013	10:54	5619	lice	33	2090	lice
032013	10:54	5619	13lice	34	2061	2
032013	10:54	5619	dax	35	1624	dax
032013	10:54	5619	8dax	36	958	5
032013	10:54	5619	plin	37	3389	plin
032013	10:54	5619	10plin	38	1548	3
032013	10:54	5619	lump	39	2372	lump
032013	10:54	5619	23lump	40	627	3
032013	10:54	5619	win	41	1488	win
032013	10:54	5619	18win	42	1578	9
032013	10:54	5619	jabe	43	2257	jabe
032013	10:54	5619	2jabe	44	1277	5
032013	10:54	5619	yofe	45	2455	yofe
032013	10:54	5619	1yofe	46	1395	5
032013	10:54	5619	soob	47	2257	soob
032013	10:54	5619	7soob	48	501	5
032013	10:54	5619	slap	49	1983	slap
032013	10:54	5619	16slap	50	365	2
032013	10:54	5619	nobe	51	1868	nobe
032013	10:54	5619	1nobe	52	431	5
032013	10:54	5619	frog	53	1979	frog
032013	10:54	5619	15frog	54	594	8
032013	10:54	5619	more	55	2072	more
032013	10:54	5619	12more	56	555	9
032013	10:54	5619	hide	57	2130	hide
032013	10:54	5619	13hide	58	387	4
032013	10:54	5619	peka	59	2537	peka
032013	10:54	5619	4peka	60	506	4
032013	10:54	5619	scar	61	2292	scar
032013	10:54	5619	20scar	62	366	2
032013	10:54	5619	cow	63	1949	cow
032013	10:54	5619	16cow	64	1005	4
032013	10:54	5619	pems	65	2747	pems
032013	10:54	5619	4pems	66	395	5
032013	10:54	5619	yeet	67	1728	yeat
032013	10:54	5619	3yeet	68	505	5
032013	10:54	5619	sad	69	1290	sad
032013	10:54	5619	20sad	70	981	1
032013	10:54	5619	wish	71	2947	wish
032013	10:54	5619	17wish	72	1620	8
032013	10:54	5619	lik	73	2513	lik
032013	10:54	5619	11lik	74	514	5
032013	10:54	5619	jobe	75	1931	jobe
032013	10:54	5619	1jobe	76	460	5
032013	10:54	5619	voom	77	2430	voom
032013	10:54	5619	7voom	78	555	5
032013	10:54	5619	tage	79	1955	tage
032013	10:54	5619	9tage	80	403	5
032013	10:54	5619	yate	81	1968	yate
032013	10:54	5619	2yate	82	376	5
032013	10:54	5619	yoop	83	2830	yoop
032013	10:54	5619	11yoop	84	411	6
032013	10:54	5619	tutk	85	4728	tutk
032013	10:54	5619	5tutk	86	305	5
032013	10:54	5619	life	87	1715	life
032013	10:54	5619	12life	88	532	9
032013	10:54	5619	woem	89	1860	woem
032013	10:54	5619	4woem	90	472	5
032013	10:54	5619	silk	91	1626	silk
032013	10:54	5619	19silk	92	319	5
032013	10:54	5619	slin	93	1872	slin
032013	10:54	5619	6slin	94	379	5
032013	10:54	5619	hay	95	1697	hay
032013	10:54	5619	17hay	96	571	5
032013	10:54	5619	tove	97	1546	tove
032013	10:54	5619	3tove	98	386	5
032013	10:54	5619	voke	99	1864	voke
032013	10:54	5619	6voke	100	355	5
032013	10:54	5619	pill	101	1931	pill
032013	10:54	5619	23pill	102	355	3
032013	10:54	5619	nofe	103	2435	nofe
032013	10:54	5619	1nofe	104	615	5
032013	10:54	5619	jufe	105	1884	jufe
032013	10:54	5619	24jufe	106	215	5
032013	10:54	5619	girl	107	1716	girl
032013	10:54	5619	17girl	108	421	9
032013	10:54	5619	neeb	109	1954	neeb
032013	10:54	5619	3neeb	110	338	5
032013	10:54	5619	foof	111	2618	foof
032013	10:54	5619	7foof	112	336	5
032013	10:54	5619	flin	113	1591	flin
032013	10:54	5619	6flin	114	326	5
032013	10:54	5619	meef	115	1998	meef
032013	10:54	5619	3meef	116	285	5
032013	10:54	5619	lool	117	2087	lool
032013	10:54	5619	11lool	118	305	5
032013	10:54	5619	wasp	119	2115	wasp
032013	10:54	5619	15wasp	120	324	2
032013	10:54	5619	tomb	121	1669	tomb
032013	10:54	5619	19tomb	122	440	1
032013	10:54	5619	mafe	123	1692	mafe
032013	10:54	5619	2mafe	124	695	3
032013	10:54	5619	snob	125	3048	snob
032013	10:54	5619	18snob	126	1061	2
032013	10:54	5619	voop	127	2352	voop
032013	10:54	5619	7voop	128	552	5
032013	10:54	5619	pluk	129	6399	pluk
032013	10:54	5619	10pluk	130	567	5
032013	10:54	5619	obey	131	2205	obey
032013	10:54	5619	14obey	132	2164	3
032013	10:54	5619	wac	133	1435	wac
032013	10:54	5619	8wac	134	591	3
032013	10:54	5619	bath	135	1550	bath
032013	10:54	5619	15bath	136	734	8
032013	10:54	5619	leel	137	1830	leel
032013	10:54	5619	3leel	138	1138	8
032013	10:54	5619	aqil	139	2563	aqil
032013	10:54	5619	24aqil	140	450	5
032013	10:54	5619	nilo	141	2126	nilo
032013	10:54	5619	11nilo	142	902	5
032013	10:54	5619	nude	143	1928	nude
032013	10:54	5619	13nude	144	681	8
032013	10:54	5619	soog	145	1947	soog
032013	10:54	5619	7soog	146	331	5
032013	10:54	5619	cute	147	2043	cute
032013	10:54	5619	15cute	148	527	9
032013	10:54	5619	eat	149	1343	eat
032013	10:54	5619	20eat	150	479	9
032013	10:54	5619	zabe	151	1617	zabe
032013	10:54	5619	9zabe	152	374	5
032013	10:54	5619	baby	153	2077	baby
032013	10:54	5619	15baby	154	600	9
032013	10:54	5619	zafe	155	1781	zafe
032013	10:54	5619	9zafe	156	564	8
032013	10:54	5619	bowl	157	1651	bowl
032013	10:54	5619	17bowl	158	1367	7
032013	10:54	5619	pom	159	2477	pom
032013	10:54	5619	22pom	160	328	5
032013	10:54	5619	joom	161	1985	joom
032013	10:54	5619	11joom	162	511	5
032013	10:54	5619	kige	163	2104	kige
032013	10:54	5619	24kige	164	370	5
032013	10:54	5619	kabe	165	2009	kabe
032013	10:54	5619	2kabe	166	487	5
032013	10:54	5619	seat	167	1633	seat
032013	10:54	5619	20seat	168	317	5
032013	10:54	5619	vape	169	1534	vape
032013	10:54	5619	2vape	170	391	5
032013	10:54	5619	dlip	171	2125	dlip
032013	10:54	5619	6dlip	172	526	5
032013	10:54	5619	fear	173	1583	fear
032013	10:54	5619	21fear	174	310	1
032013	10:54	5619	song	175	1231	song
032013	10:54	5619	18song	176	459	9
032013	10:54	5619	lip	177	1703	lip
032013	10:54	5619	22lip	178	513	8
032013	10:54	5619	melb	179	2922	melb
032013	10:54	5619	4melb	180	443	5
032013	10:54	5619	nuad	181	2343	nuad
032013	10:54	5619	24nuad	182	359	5
032013	10:54	5619	hil	183	1694	hil
032013	10:54	5619	10hil	184	200	5
032013	10:54	5619	jip	185	2150	jip
032013	10:54	5619	22jip	186	230	1
032013	10:54	5619	anay	187	1626	anay
032013	10:54	5619	5anay	188	359	5
032013	10:54	5619	lust	189	1606	lust
032013	10:54	5619	12lust	190	260	5
032013	10:54	5619	tez	191	2503	tez
032013	10:54	5619	8tez	192	344	5
032013	10:54	5619	yame	193	2248	yame
032013	10:54	5619	5yame	194	261	5
032013	10:54	5619	name	195	1391	name
032013	10:54	5619	17name	196	461	8
032013	10:54	5619	dawn	197	1912	dawn
032013	10:54	5619	14dawn	198	458	8
032013	10:54	5619	sun	199	1237	sun
032013	10:54	5619	19sun	200	466	8
032013	10:54	5619	arm	201	1188	arm
032013	10:54	5619	14arm	202	499	5
032013	10:54	5619	pobe	203	2212	pobe
032013	10:54	5619	1pobe	204	290	5
032013	10:54	5619	fish	205	2044	fish
032013	10:54	5619	16fish	206	264	5
032013	10:54	5619	lids	207	1986	lids
032013	10:54	5619	12lids	208	801	5
032013	10:54	5619	zest	209	1591	zest
032013	10:54	5619	20zest	210	349	5
032013	10:54	5619	celm	211	3509	celm
032013	10:54	5619	24celm	212	535	5
032013	10:54	5619	yip	213	2119	yip
032013	10:54	5619	22yip	214	1512	5
032013	10:54	5619	noon	215	1433	noon
032013	10:54	5619	23noon	216	518	5
032013	10:54	5619	cell	217	1511	cell
032013	10:54	5619	13cell	218	1136	1
032013	10:54	5619	air	219	1328	air
032013	10:54	5619	16air	220	969	8
032013	10:54	5619	veed	221	1663	veed
032013	10:54	5619	9veed	222	339	5
032013	10:54	5619	wife	223	1379	wife
032013	10:54	5619	14wife	224	489	9
032013	10:54	5619	waf	225	1459	waf
032013	10:54	5619	8waf	226	749	5
032013	10:54	5619	lim	227	1446	lim
032013	10:54	5619	10lim	228	642	2
032013	10:54	5619	liar	229	1902	liar
032013	10:54	5619	12liar	230	368	1
032013	10:54	5619	bed	231	1599	bed
032013	10:54	5619	21bed	232	309	5
032013	10:54	5619	star	233	1382	star
032013	10:54	5619	21star	234	469	8
032013	10:54	5619	clim	235	2031	clim
032013	10:54	5619	6clim	236	252	5
032013	10:54	5619	alfi	237	1783	alfi
032013	10:54	5619	4alfi	238	326	5
032013	10:54	5619	fat	239	1223	fat
032013	10:54	5619	21fat	240	332	2
032713	09:56	51	speed	1	2531	56
032713	09:56	51	error	2	2879	98
032713	09:56	51	whichhand	3	10323	right
032713	09:56	51	yane	1	4494	yane
032713	09:56	51	5yane	2	11881	5
032713	09:56	51	army	3	3775	army
032713	09:56	51	13army	4	2679	6
032713	09:56	51	beeg	5	5514	beeg
032713	09:56	51	9beeg	6	1645	3
032713	09:56	51	lion	7	3159	lion
032713	09:56	51	23lion	8	2968	6
032713	09:56	51	taxe	9	3607	taxe
032713	09:56	51	8taxe	10	2038	3
032713	09:56	51	pest	11	3483	pest
032713	09:56	51	14pest	12	1374	4
032713	09:56	51	sour	13	3213	sour
032713	09:56	51	18sour	14	1315	6
032713	09:56	51	jame	15	2772	jame
032713	09:56	51	5jame	16	2540	3
032713	09:56	51	ugly	17	2907	ugly
032713	09:56	51	19ugly	18	1135	4
032713	09:56	51	mom	19	2374	mom
032713	09:56	51	23mom	20	3014	7
032713	09:56	51	lake	21	2067	lake
032713	09:56	51	16lake	22	1663	7
032713	09:56	51	bees	23	2937	bees
032713	09:56	51	21bees	24	2363	5
032713	09:56	51	nip	25	3315	nip
032713	09:56	51	22nip	26	1821	4
032713	09:56	51	nop	27	3569	nop
032713	09:56	51	10nop	28	1330	4
032713	09:56	51	blue	29	2137	blue
032713	09:56	51	18blue	30	1347	6
032713	09:56	51	cold	31	1738	cold
032713	09:56	51	19cold	32	923	4
032713	09:56	51	lice	33	2435	lice
032713	09:56	51	13lice	34	1289	6
032713	09:56	51	dax	35	2434	dax
032713	09:56	51	8dax	36	1664	2
032713	09:56	51	plin	37	2146	plin
032713	09:56	51	10plin	38	1427	5
032713	09:56	51	lump	39	2447	lump
032713	09:56	51	23lump	40	1188	6
032713	09:56	51	win	41	2322	win
032713	09:56	51	18win	42	1156	5
032713	09:56	51	jabe	43	2122	jabe
032713	09:56	51	2jabe	44	829	2
032713	09:56	51	yofe	45	3456	yofe
032713	09:56	51	1yofe	46	1245	2
032713	09:56	51	soob	47	2576	soob
032713	09:56	51	7soob	48	472	3
032713	09:56	51	slap	49	2466	slap
032713	09:56	51	16slap	50	1262	4
032713	09:56	51	nobe	51	3560	nobe
032713	09:56	51	1nobe	52	697	4
032713	09:56	51	frog	53	2682	frog
032713	09:56	51	15frog	54	686	6
032713	09:56	51	more	55	1823	more
032713	09:56	51	12more	56	1413	6
032713	09:56	51	hide	57	2241	hide
032713	09:56	51	13hide	58	719	7
032713	09:56	51	peka	59	2255	peka
032713	09:56	51	4peka	60	900	4
032713	09:56	51	scar	61	2524	scar
032713	09:56	51	20scar	62	1127	4
032713	09:56	51	cow	63	2319	cow
032713	09:56	51	16cow	64	745	6
032713	09:56	51	pems	65	2151	pems
032713	09:56	51	4pems	66	1776	2
032713	09:56	51	yeet	67	2110	yeet
032713	09:56	51	3yeet	68	1816	3
032713	09:56	51	sad	69	1788	sad
032713	09:56	51	20sad	70	3220	7
032713	09:56	51	wish	71	1777	wish
032713	09:56	51	17wish	72	504	7
032713	09:56	51	lik	73	1969	lik
032713	09:56	51	11lik	74	1313	5
032713	09:56	51	jobe	75	2033	jobe
032713	09:56	51	1jobe	76	487	3
032713	09:56	51	voom	77	2592	voom
032713	09:56	51	7voom	78	919	3
032713	09:56	51	tage	79	2095	tage
032713	09:56	51	9tage	80	858	3
032713	09:56	51	yate	81	2709	yate
032713	09:56	51	2yate	82	816	4
032713	09:56	51	yoop	83	3411	yoop
032713	09:56	51	11yoop	84	546	2
032713	09:56	51	tutk	85	2393	tutk
032713	09:56	51	5tutk	86	384	2
032713	09:56	51	life	87	1845	life
032713	09:56	51	12life	88	570	8
032713	09:56	51	woem	89	2360	woem
032713	09:56	51	4woem	90	1720	3
032713	09:56	51	silk	91	2080	silk
032713	09:56	51	19silk	92	972	4
032713	09:56	51	slin	93	1722	slin
032713	09:56	51	6slin	94	445	2
032713	09:56	51	hay	95	1799	hay
032713	09:56	51	17hay	96	1566	7
032713	09:56	51	tove	97	2612	tove
032713	09:56	51	3tove	98	666	3
032713	09:56	51	voke	99	2164	voke
032713	09:56	51	6voke	100	1013	4
032713	09:56	51	pill	101	2249	pill
032713	09:56	51	23pill	102	1246	5
032713	09:56	51	nofe	103	3208	nofe
032713	09:56	51	1nofe	104	1247	3
032713	09:56	51	jufe	105	2458	jufe
032713	09:56	51	24jufe	106	847	3
032713	09:56	51	girl	107	1674	girl
032713	09:56	51	17girl	108	590	8
032713	09:56	51	neeb	109	2067	neeb
032713	09:56	51	3neeb	110	1439	3
032713	09:56	51	foof	111	2227	foof
032713	09:56	51	7foof	112	1361	3
032713	09:56	51	flin	113	1831	flin
032713	09:56	51	6flin	114	1108	4
032713	09:56	51	meef	115	2221	meef
032713	09:56	51	3meef	116	563	3
032713	09:56	51	lool	117	2041	lool
032713	09:56	51	11lool	118	311	3
032713	09:56	51	wasp	119	4150	wasp
032713	09:56	51	15wasp	120	1040	7
032713	09:56	51	tomb	121	2524	tomb
032713	09:56	51	19tomb	122	2318	8
032713	09:56	51	mafe	123	2182	mafe
032713	09:56	51	2mafe	124	998	4
032713	09:56	51	snob	125	2002	snob
032713	09:56	51	18snob	126	570	7
032713	09:56	51	voop	127	2200	voop
032713	09:56	51	7voop	128	1231	4
032713	09:56	51	pluk	129	2442	pluk
032713	09:56	51	10pluk	130	784	3
032713	09:56	51	obey	131	1709	obey
032713	09:56	51	14obey	132	960	8
032713	09:56	51	wac	133	3014	wac
032713	09:56	51	8wac	134	645	3
032713	09:56	51	bath	135	1871	bath
032713	09:56	51	15bath	136	723	7
032713	09:56	51	leel	137	1739	leel
032713	09:56	51	3leel	138	1141	3
032713	09:56	51	aqil	139	3941	aqil
032713	09:56	51	24aqil	140	1742	1
032713	09:56	51	nilo	141	2158	nilo
032713	09:56	51	11nilo	142	1231	8
032713	09:56	51	nude	143	2131	nude
032713	09:56	51	13nude	144	300	8
032713	09:56	51	soog	145	3332	soog
032713	09:56	51	7soog	146	399	8
032713	09:56	51	cute	147	2019	cute
032713	09:56	51	15cute	148	658	7
032713	09:56	51	eat	149	1572	eat
032713	09:56	51	20eat	150	596	9
032713	09:56	51	zabe	151	2433	zabe
032713	09:56	51	9zabe	152	558	5
032713	09:56	51	baby	153	1701	baby
032713	09:56	51	15baby	154	632	8
032713	09:56	51	zafe	155	2395	zafe
032713	09:56	51	9zafe	156	602	4
032713	09:56	51	bowl	157	2111	bowl
032713	09:56	51	17bowl	158	617	7
032713	09:56	51	pom	159	2141	pom
032713	09:56	51	22pom	160	503	7
032713	09:56	51	joom	161	1959	joom
032713	09:56	51	11joom	162	447	8
032713	09:56	51	kige	163	2490	kige
032713	09:56	51	24kige	164	838	3
032713	09:56	51	kabe	165	1833	kabe
032713	09:56	51	2kabe	166	1454	6
032713	09:56	51	seat	167	2009	seat
032713	09:56	51	20seat	168	528	8
032713	09:56	51	vape	169	2879	vape
032713	09:56	51	2vape	170	883	6
032713	09:56	51	dlip	171	2524	dlip
032713	09:56	51	6dlip	172	614	4
032713	09:56	51	fear	173	2226	fear
032713	09:56	51	21fear	174	1592	7
032713	09:56	51	song	175	1446	song
032713	09:56	51	18song	176	603	9
032713	09:56	51	lip	177	1879	lip
032713	09:56	51	22lip	178	499	7
032713	09:56	51	melb	179	2099	melb
032713	09:56	51	4melb	180	454	5
032713	09:56	51	nuad	181	2065	nuad
032713	09:56	51	24nuad	182	573	4
032713	09:56	51	hil	183	1906	hil
032713	09:56	51	10hil	184	646	5
032713	09:56	51	jip	185	1912	jip
032713	09:56	51	22jip	186	259	5
032713	09:56	51	anay	187	6181	anay
032713	09:56	51	5anay	188	534	3
032713	09:56	51	lust	189	1637	lust
032713	09:56	51	12lust	190	939	3
032713	09:56	51	tez	191	4066	tez
032713	09:56	51	8tez	192	631	1
032713	09:56	51	yame	193	2706	yame
032713	09:56	51	5yame	194	1173	3
032713	09:56	51	name	195	1947	name
032713	09:56	51	17name	196	324	9
032713	09:56	51	dawn	197	2076	dawn
032713	09:56	51	14dawn	198	424	7
032713	09:56	51	sun	199	2492	sun
032713	09:56	51	19sun	200	855	8
032713	09:56	51	arm	201	3434	arm
032713	09:56	51	14arm	202	696	8
032713	09:56	51	pobe	203	5361	pobe
032713	09:56	51	1pobe	204	882	4
032713	09:56	51	fish	205	1659	fish
032713	09:56	51	16fish	206	631	8
032713	09:56	51	lids	207	1707	lids
032713	09:56	51	12lids	208	262	8
032713	09:56	51	zest	209	3143	zest
032713	09:56	51	20zest	210	633	6
032713	09:56	51	celm	211	2100	celm
032713	09:56	51	24celm	212	7775	5
032713	09:56	51	yip	213	4510	yip
032713	09:56	51	22yip	214	1042	4
032713	09:56	51	noon	215	2197	noon
032713	09:56	51	23noon	216	908	6
032713	09:56	51	cell	217	1773	cell
032713	09:56	51	13cell	218	405	6
032713	09:56	51	air	219	1553	air
032713	09:56	51	16air	220	674	9
032713	09:56	51	veed	221	3852	veed
032713	09:56	51	9veed	222	1346	4
032713	09:56	51	wife	223	2296	wife
032713	09:56	51	14wife	224	643	6
032713	09:56	51	waf	225	2694	waf
032713	09:56	51	8waf	226	1089	4
032713	09:56	51	lim	227	1690	lim
032713	09:56	51	10lim	228	1070	4
032713	09:56	51	liar	229	1728	liar
032713	09:56	51	12liar	230	1530	7
032713	09:56	51	bed	231	3697	bed
032713	09:56	51	21bed	232	301	7
032713	09:56	51	star	233	1765	star
032713	09:56	51	21star	234	445	7
032713	09:56	51	clim	235	2120	clim
032713	09:56	51	6clim	236	682	6
032713	09:56	51	alfi	237	2283	alfi
032713	09:56	51	4alfi	238	583	4
032713	09:56	51	fat	239	1556	fat
032713	09:56	51	21fat	240	1141	8
032713	11:24	654	speed	1	4706	48
032713	11:24	654	error	2	2882	89
032713	11:24	654	whichhand	3	7725	Right
032713	11:24	654	yane	1	5971	yane
032713	11:24	654	5yane	2	4923	5
032713	11:24	654	army	3	4014	army
032713	11:24	654	13army	4	1308	8
032713	11:24	654	beeg	5	3685	beeg
032713	11:24	654	9beeg	6	1137	3
032713	11:24	654	lion	7	3161	lion
032713	11:24	654	23lion	8	2249	5
032713	11:24	654	taxe	9	4605	taxe
032713	11:24	654	8taxe	10	1028	2
032713	11:24	654	pest	11	3344	pest
032713	11:24	654	14pest	12	672	1
032713	11:24	654	sour	13	3427	sour
032713	11:24	654	18sour	14	1808	1
032713	11:24	654	jame	15	2550	jame
032713	11:24	654	5jame	16	639	5
032713	11:24	654	ugly	17	2507	ugly
032713	11:24	654	19ugly	18	709	3
032713	11:24	654	mom	19	2214	mom
032713	11:24	654	23mom	20	548	9
032713	11:24	654	lake	21	2411	lake
032713	11:24	654	16lake	22	689	9
032713	11:24	654	bees	23	2827	bees
032713	11:24	654	21bees	24	752	5
032713	11:24	654	nip	25	4903	nip
032713	11:24	654	22nip	26	1490	3
032713	11:24	654	nop	27	3077	nop
032713	11:24	654	10nop	28	992	5
032713	11:24	654	blue	29	2622	blue
032713	11:24	654	18blue	30	1084	7
032713	11:24	654	cold	31	9990	cold
032713	11:24	654	19cold	32	1030	2
032713	11:24	654	lice	33	3227	lice
032713	11:24	654	13lice	34	544	1
032713	11:24	654	dax	35	3167	dax
032713	11:24	654	8dax	36	910	5
032713	11:24	654	plin	37	2856	plin
032713	11:24	654	10plin	38	1396	5
032713	11:24	654	lump	39	4034	lump
032713	11:24	654	23lump	40	943	2
032713	11:24	654	win	41	2719	win
032713	11:24	654	18win	42	585	9
032713	11:24	654	jabe	43	3558	jabe
032713	11:24	654	2jabe	44	703	5
032713	11:24	654	yofe	45	3320	yofe
032713	11:24	654	1yofe	46	4106	5
032713	11:24	654	soob	47	2540	soob
032713	11:24	654	7soob	48	965	5
032713	11:24	654	slap	49	2764	slap
032713	11:24	654	16slap	50	540	3
032713	11:24	654	nobe	51	3004	nobe
032713	11:24	654	1nobe	52	938	5
032713	11:24	654	frog	53	2826	frog
032713	11:24	654	15frog	54	711	4
032713	11:24	654	more	55	2288	more
032713	11:24	654	12more	56	747	6
032713	11:24	654	hide	57	2498	hide
032713	11:24	654	13hide	58	852	4
032713	11:24	654	peka	59	2423	peka
032713	11:24	654	4peka	60	501	5
032713	11:24	654	scar	61	3159	scar
032713	11:24	654	20scar	62	710	3
032713	11:24	654	cow	63	2343	cow
032713	11:24	654	16cow	64	639	6
032713	11:24	654	pems	65	2788	pems
032713	11:24	654	4pems	66	1315	5
032713	11:24	654	yeet	67	3315	yeet
032713	11:24	654	3yeet	68	685	5
032713	11:24	654	sad	69	2472	sad
032713	11:24	654	20sad	70	1627	2
032713	11:24	654	wish	71	4119	wish
032713	11:24	654	17wish	72	666	7
032713	11:24	654	lik	73	2884	lik
032713	11:24	654	11lik	74	824	5
032713	11:24	654	jobe	75	3276	jobe
032713	11:24	654	1jobe	76	799	5
032713	11:24	654	voom	77	3589	voom
032713	11:24	654	7voom	78	1452	5
032713	11:24	654	tage	79	2840	tage
032713	11:24	654	9tage	80	701	5
032713	11:24	654	yate	81	2758	yate
032713	11:24	654	2yate	82	791	5
032713	11:24	654	yoop	83	3477	yoop
032713	11:24	654	11yoop	84	696	5
032713	11:24	654	tutk	85	4057	tutk
032713	11:24	654	5tutk	86	1038	5
032713	11:24	654	life	87	3178	life
032713	11:24	654	12life	88	594	9
032713	11:24	654	woem	89	4431	woem
032713	11:24	654	4woem	90	1005	5
032713	11:24	654	silk	91	3074	silk
032713	11:24	654	19silk	92	678	9
032713	11:24	654	slin	93	3096	slin
032713	11:24	654	6slin	94	402	5
032713	11:24	654	hay	95	2712	hay
032713	11:24	654	17hay	96	537	6
032713	11:24	654	tove	97	2497	tove
032713	11:24	654	3tove	98	852	5
032713	11:24	654	voke	99	2367	voke
032713	11:24	654	6voke	100	1303	5
032713	11:24	654	pill	101	3144	pill
032713	11:24	654	23pill	102	929	4
032713	11:24	654	nofe	103	2929	nofe
032713	11:24	654	1nofe	104	866	5
032713	11:24	654	jufe	105	2709	jufe
032713	11:24	654	24jufe	106	1935	5
032713	11:24	654	girl	107	2535	girl
032713	11:24	654	17girl	108	600	9
032713	11:24	654	neeb	109	2557	neeb
032713	11:24	654	3neeb	110	1062	8
032713	11:24	654	foof	111	3065	foof
032713	11:24	654	7foof	112	1092	6
032713	11:24	654	flin	113	3279	flin
032713	11:24	654	6flin	114	522	5
032713	11:24	654	meef	115	3482	meef
032713	11:24	654	3meef	116	1542	5
032713	11:24	654	lool	117	3822	lool
032713	11:24	654	11lool	118	412	6
032713	11:24	654	wasp	119	2857	wasp
032713	11:24	654	15wasp	120	1061	1
032713	11:24	654	tomb	121	2856	tomb
032713	11:24	654	19tomb	122	685	3
032713	11:24	654	mafe	123	2590	mafe
032713	11:24	654	2mafe	124	862	5
032713	11:24	654	snob	125	2768	snob
032713	11:24	654	18snob	126	584	2
032713	11:24	654	voop	127	7358	voop
032713	11:24	654	7voop	128	1615	5
032713	11:24	654	pluk	129	3196	pluk
032713	11:24	654	10pluk	130	3179	5
032713	11:24	654	obey	131	20385	obey
032713	11:24	654	14obey	132	2670	7
032713	11:24	654	wac	133	3857	wac
032713	11:24	654	8wac	134	2854	5
032713	11:24	654	bath	135	2538	bath
032713	11:24	654	15bath	136	660	8
032713	11:24	654	leel	137	3710	leel
032713	11:24	654	3leel	138	960	7
032713	11:24	654	aqil	139	4055	aqil
032713	11:24	654	24aqil	140	636	4
032713	11:24	654	nilo	141	2640	nilo
032713	11:24	654	11nilo	142	837	5
032713	11:24	654	nude	143	4217	nude
032713	11:24	654	13nude	144	399	7
032713	11:24	654	soog	145	2837	soog
032713	11:24	654	7soog	146	674	5
032713	11:24	654	cute	147	3548	cute
032713	11:24	654	15cute	148	661	8
032713	11:24	654	eat	149	2688	eat
032713	11:24	654	20eat	150	555	7
032713	11:24	654	zabe	151	3026	zabe
032713	11:24	654	9zabe	152	1127	6
032713	11:24	654	baby	153	2263	baby
032713	11:24	654	15baby	154	635	8
032713	11:24	654	zafe	155	3183	zafe
032713	11:24	654	9zafe	156	558	5
032713	11:24	654	bowl	157	3109	bowl
032713	11:24	654	17bowl	158	447	5
032713	11:24	654	pom	159	3091	pom
032713	11:24	654	22pom	160	486	5
032713	11:24	654	joom	161	3008	joom
032713	11:24	654	11joom	162	574	5
032713	11:24	654	kige	163	2893	kige
032713	11:24	654	24kige	164	447	5
032713	11:24	654	kabe	165	2859	kabe
032713	11:24	654	2kabe	166	758	5
032713	11:24	654	seat	167	3078	seat
032713	11:24	654	20seat	168	489	6
032713	11:24	654	vape	169	4755	vape
032713	11:24	654	2vape	170	564	5
032713	11:24	654	dlip	171	4051	dlip
032713	11:24	654	6dlip	172	727	5
032713	11:24	654	fear	173	2823	fear
032713	11:24	654	21fear	174	1349	3
032713	11:24	654	song	175	2533	song
032713	11:24	654	18song	176	862	7
032713	11:24	654	lip	177	3081	lip
032713	11:24	654	22lip	178	1588	6
032713	11:24	654	melb	179	2586	melb
032713	11:24	654	4melb	180	921	5
032713	11:24	654	nuad	181	4042	nuad
032713	11:24	654	24nuad	182	839	5
032713	11:24	654	hil	183	5091	hil
032713	11:24	654	10hil	184	1183	5
032713	11:24	654	jip	185	2829	jip
032713	11:24	654	22jip	186	1474	6
032713	11:24	654	anay	187	2173	anay
032713	11:24	654	5anay	188	612	5
032713	11:24	654	lust	189	2329	lust
032713	11:24	654	12lust	190	1514	8
032713	11:24	654	tez	191	38770	tez
032713	11:24	654	8tez	192	1126	5
032713	11:24	654	yame	193	3886	yame
032713	11:24	654	5yame	194	578	5
032713	11:24	654	name	195	2848	name
032713	11:24	654	17name	196	844	7
032713	11:24	654	dawn	197	16295	dawn
032713	11:24	654	14dawn	198	1750	7
032713	11:24	654	sun	199	28869	sun
032713	11:24	654	19sun	200	586	9
032713	11:24	654	arm	201	2200	arm
032713	11:24	654	14arm	202	702	6
032713	11:24	654	pobe	203	2255	pobe
032713	11:24	654	1pobe	204	579	3
032713	11:24	654	fish	205	2778	fish
032713	11:24	654	16fish	206	529	7
032713	11:24	654	lids	207	2513	lids
032713	11:24	654	12lids	208	514	6
032713	11:24	654	zest	209	10106	zest
032713	11:24	654	20zest	210	1663	6
032713	11:24	654	celm	211	4786	celm
032713	11:24	654	24celm	212	794	5
032713	11:24	654	yip	213	3391	yip
032713	11:24	654	22yip	214	1166	7
032713	11:24	654	noon	215	2813	noon
032713	11:24	654	23noon	216	555	7
032713	11:24	654	cell	217	2850	cell
032713	11:24	654	13cell	218	583	3
032713	11:24	654	air	219	1941	air
032713	11:24	654	16air	220	725	9
032713	11:24	654	veed	221	3142	veed
032713	11:24	654	9veed	222	551	5
032713	11:24	654	wife	223	1886	wife
032713	11:24	654	14wife	224	513	8
032713	11:24	654	waf	225	2042	waf
032713	11:24	654	8waf	226	654	5
