date	time	subject	trialcode	trialnum	latency	response
100713	16:23	1	speed	1	4324	71
100713	16:23	1	error	2	2504	88
100713	16:23	1	whichhand	3	8372	Left
100713	16:23	1	f.glose	1	25491	5
100713	16:23	1	f.stache	2	3061	6
100713	16:23	1	f.plache	3	4680	6
100713	16:23	1	f.prole	4	2820	8
100713	16:23	1	f.dreeze	5	3025	8
100713	16:23	1	f.fleeb	6	2910	5
100713	16:23	1	f.doof	7	2248	9
100713	16:23	1	f.prooth	8	4763	8
100713	16:23	1	f.sloog	9	2443	6
100713	16:23	1	f.troom	10	4759	6
100713	16:23	1	f.dogue	11	3735	7
100713	16:23	1	f.thwade	12	4616	4
100713	16:23	1	f.jame	13	2725	5
100713	16:23	1	f.choob	14	2719	3
100713	16:23	1	f.threef	15	4376	6
100713	16:23	1	f.thwofe	16	4855	7
100713	16:23	1	f.skeeb	17	5099	7
100713	16:23	1	f.froop	18	1638	8
100713	16:23	1	f.yeeve	19	3394	4
100713	16:23	1	f.sneeb	20	1592	5
100713	16:23	1	f.zeesh	21	4022	3
100713	16:23	1	f.gleef	22	1604	3
100713	16:23	1	f.dween	23	3458	4
100713	16:23	1	f.smeege	24	11373	4
100713	16:23	1	f.treege	25	1879	4
100713	16:23	1	f.smashe	26	3569	7
100713	16:23	1	f.smeese	27	1889	6
100713	16:23	1	f.threem	28	2099	6
100713	16:23	1	f.slache	29	1557	5
100713	16:23	1	f.wogue	30	6140	7
100713	16:23	1	f.proosh	31	3638	4
100713	16:23	1	f.sleef	32	2451	5
100713	16:23	1	f.nogue	33	1215	4
100713	16:23	1	f.stose	34	2155	4
100713	16:23	1	f.jeeth	35	5699	7
100713	16:23	1	f.grare	36	8166	5
100713	16:23	1	f.plool	37	1487	6
100713	16:23	1	f.gwooth	38	4937	5
100713	16:23	1	f.throthe	39	3290	7
100713	16:23	1	f.skeeg	40	1469	5
100713	16:23	1	f.floog	41	1487	6
100713	16:23	1	f.swose	42	5130	8
100713	16:23	1	f.moof	43	1531	6
100713	16:23	1	f.gwache	44	4107	5
100713	16:23	1	f.drood	45	5549	7
100713	16:23	1	f.sleem	46	1222	6
100713	16:23	1	f.jeet	47	5315	3
100713	16:23	1	f.kweeb	48	2381	5
100713	16:23	1	f.dathe	49	5060	6
100713	16:23	1	f.nage	50	1655	2
100713	16:23	1	f.pague	51	1515	3
100713	16:23	1	f.glache	52	3532	4
100713	16:23	1	f.plafe	53	2125	7
100713	16:23	1	f.wooch	54	2661	4
100713	16:23	1	f.threek	55	2345	7
100713	16:23	1	f.dware	56	4296	6
100713	16:23	1	f.gloose	57	1955	7
100713	16:23	1	f.veeb	58	1451	4
100713	16:23	1	f.brooge	59	2254	5
100713	16:23	1	f.veege	60	1954	3
100713	16:23	1	r.daylight	1	8809	8
100713	16:23	1	r.pillow	2	3185	6
100713	16:23	1	r.journal	3	8999	5
100713	16:23	1	r.tennis	4	4015	4
100713	16:23	1	r.damage	5	2125	3
100713	16:23	1	r.feeble	6	3398	3
100713	16:23	1	r.birthday	7	3380	6
100713	16:23	1	r.knot	8	2019	5
100713	16:23	1	r.crisis	9	3216	7
100713	16:23	1	r.decorate	10	3653	5
100713	16:23	1	r.sex	11	3697	8
100713	16:23	1	r.bunny	12	5779	6
100713	16:23	1	r.glamour	13	3723	6
100713	16:23	1	r.defiant	14	3836	5
100713	16:23	1	r.victim	15	3001	4
100713	16:23	1	r.frustrated	16	2990	1
100713	16:23	1	r.orgasm	17	2302	9
100713	16:23	1	r.joke	18	1360	8
100713	16:23	1	r.friend	19	3654	7
100713	16:23	1	r.flirt	20	1707	6
100713	16:23	1	r.perfume	21	2564	6
100713	16:23	1	r.consoled	22	5379	4
100713	16:23	1	r.art	23	5627	6
100713	16:23	1	r.rain	24	4048	5
100713	16:23	1	r.burdened	25	1556	4
100713	16:23	1	r.nun	26	1988	2
100713	16:23	1	r.divorce	27	4770	3
100713	16:23	1	r.gloom	28	3018	4
100713	16:23	1	r.injury	29	4407	3
100713	16:23	1	r.cliff	30	10182	6
100713	16:23	1	r.distressed	31	2087	2
100713	16:23	1	r.bankrupt	32	1761	4
100713	16:23	1	r.discomfort	33	2984	4
100713	16:23	1	r.loyal	34	2647	5
100713	16:23	1	r.tomb	35	3618	5
100713	16:23	1	r.satisfied	36	5000	8
100713	16:23	1	r.egg	37	3991	5
100713	16:23	1	r.thorn	38	7077	5
100713	16:23	1	r.achievement	39	1945	7
100713	16:23	1	r.invest	40	3385	6
100713	16:23	1	r.punishment	41	2704	1
100713	16:23	1	r.stove	42	4465	3
100713	16:23	1	r.sleep	43	6165	8
100713	16:23	1	r.yellow	44	8134	4
100713	16:23	1	r.clothing	45	2304	7
100713	16:23	1	r.shark	46	2904	5
100713	16:23	1	r.betray	47	2004	3
100713	16:23	1	r.tamper	48	6633	5
100713	16:23	1	r.museum	49	4927	6
100713	16:23	1	r.pamphlet	50	4464	8
100713	16:23	1	r.water	51	4316	6
100713	16:23	1	r.treat	52	1726	7
100713	16:23	1	r.troubled	53	2807	4
100713	16:23	1	r.dirty	54	11636	5
100713	16:23	1	r.butter	55	3468	6
100713	16:23	1	r.owl	56	4687	5
100713	16:23	1	r.handicap	57	5362	2
100713	16:23	1	r.tornado	58	2787	4
100713	16:23	1	r.spring	59	21673	6
100713	16:23	1	r.bath	60	8769	3
100713	16:23	1	howtype	1	17801	7
100813	10:51	1	speed	1	5258	35
100813	10:51	1	error	2	2114	100
100813	10:51	1	whichhand	3	6947	right
100813	10:51	1	f.sweeze	1	13331	8
100813	10:51	1	f.troge	2	2247	3
100813	10:51	1	f.yoose	3	2514	5
100813	10:51	1	f.dwome	4	2396	4
100813	10:51	1	f.boove	5	2329	5
100813	10:51	1	f.cheege	6	2434	7
100813	10:51	1	f.gleel	7	1822	9
100813	10:51	1	f.gware	8	2155	2
100813	10:51	1	f.spave	9	1683	6
100813	10:51	1	f.zoof	10	2157	6
100813	10:51	1	f.kleech	11	1893	4
100813	10:51	1	f.yone	12	1758	6
100813	10:51	1	f.dreege	13	2206	1
100813	10:51	1	f.gwode	14	1684	2
100813	10:51	1	f.frabe	15	3118	7
100813	10:51	1	f.skage	16	1743	3
100813	10:51	1	f.yeeve	17	1903	8
100813	10:51	1	f.dwogue	18	2072	2
100813	10:51	1	f.kweese	19	2243	8
100813	10:51	1	f.smape	20	3055	7
100813	10:51	1	f.shroob	21	2171	8
100813	10:51	1	f.gwave	22	1650	1
100813	10:51	1	f.dwave	23	2454	2
100813	10:51	1	f.klafe	24	2177	4
100813	10:51	1	f.skome	25	2872	5
100813	10:51	1	f.thoog	26	2195	3
100813	10:51	1	f.nofe	27	2201	2
100813	10:51	1	f.smeeb	28	2078	5
100813	10:51	1	f.sneeve	29	2273	6
100813	10:51	1	f.sabe	30	2068	7
100813	10:51	1	f.kweesh	31	2919	8
100813	10:51	1	f.twoop	32	2472	6
100813	10:51	1	f.swobe	33	2675	7
100813	10:51	1	f.kweeg	34	3462	3
100813	10:51	1	f.zeeth	35	2650	8
100813	10:51	1	f.yoche	36	3014	3
100813	10:51	1	f.veeve	37	2755	5
100813	10:51	1	f.jooch	38	3291	7
100813	10:51	1	f.preech	39	2350	8
100813	10:51	1	f.kreege	40	1869	2
100813	10:51	1	f.flabe	41	2496	7
100813	10:51	1	f.glooch	42	1770	3
100813	10:51	1	f.gwale	43	1817	2
100813	10:51	1	f.kleel	44	1782	5
100813	10:51	1	f.shase	45	2292	8
100813	10:51	1	f.swothe	46	3015	9
100813	10:51	1	f.kwabe	47	2484	2
100813	10:51	1	f.dwame	48	3310	2
100813	10:51	1	f.teege	49	2424	5
100813	10:51	1	f.thwage	50	1701	3
100813	10:51	1	f.veem	51	2310	4
100813	10:51	1	f.dreer	52	1728	1
100813	10:51	1	f.gweed	53	1520	2
100813	10:51	1	f.stooch	54	3841	4
100813	10:51	1	f.choom	55	1782	7
100813	10:51	1	f.drooth	56	1492	2
100813	10:51	1	f.jobe	57	2766	6
100813	10:51	1	f.spoge	58	2557	5
100813	10:51	1	f.vake	59	2997	8
100813	10:51	1	f.groob	60	1819	3
100813	10:51	1	r.slaughter	1	1936	1
100813	10:51	1	r.golfer	2	3272	5
100813	10:51	1	r.banner	3	2187	8
100813	10:51	1	r.present	4	2273	8
100813	10:51	1	r.disloyal	5	2245	3
100813	10:51	1	r.young	6	2057	6
100813	10:51	1	r.reunion	7	2252	7
100813	10:51	1	r.startled	8	2728	4
100813	10:51	1	r.hard	9	2249	4
100813	10:51	1	r.savior	10	2324	9
100813	10:51	1	r.diver	11	2701	6
100813	10:51	1	r.overwhelmed	12	3127	5
100813	10:51	1	r.carcass	13	1896	2
100813	10:51	1	r.guilty	14	1474	3
100813	10:51	1	r.rabbit	15	2604	7
100813	10:51	1	r.needle	16	3042	4
100813	10:51	1	r.scissors	17	2686	6
100813	10:51	1	r.mountain	18	2633	8
100813	10:51	1	r.letter	19	2013	9
100813	10:51	1	r.candy	20	1786	7
100813	10:51	1	r.grin	21	1744	9
100813	10:51	1	r.child	22	1456	9
100813	10:51	1	r.corner	23	2107	2
100813	10:51	1	r.knowledge	24	2317	7
100813	10:51	1	r.ridicule	25	2022	1
100813	10:51	1	r.butterfly	26	2243	8
100813	10:51	1	r.ambition	27	1567	9
100813	10:51	1	r.rattle	28	1814	6
100813	10:51	1	r.contempt	29	2523	3
100813	10:51	1	r.helpless	30	1811	1
100813	10:51	1	r.chance	31	2457	9
100813	10:51	1	r.tidy	32	2085	8
100813	10:51	1	r.thoughtful	33	1535	9
100813	10:51	1	r.disgusted	34	1575	1
100813	10:51	1	r.cruel	35	1518	1
100813	10:51	1	r.wish	36	1791	9
100813	10:51	1	r.stress	37	1941	3
100813	10:51	1	r.saint	38	2565	7
100813	10:51	1	r.violin	39	1812	8
100813	10:51	1	r.dreary	40	1889	2
100813	10:51	1	r.cat	41	1804	6
100813	10:51	1	r.month	42	1617	7
100813	10:51	1	r.eat	43	1822	7
100813	10:51	1	r.orchestra	44	1891	8
100813	10:51	1	r.table	45	2317	5
100813	10:51	1	r.fun	46	1382	6
100813	10:51	1	r.appliance	47	1444	5
100813	10:51	1	r.gentle	48	1632	7
100813	10:51	1	r.stomach	49	1628	5
100813	10:51	1	r.champ	50	1984	6
100813	10:51	1	r.seat	51	1935	5
100813	10:51	1	r.riot	52	2279	4
100813	10:51	1	r.tune	53	2089	7
100813	10:51	1	r.hand	54	2420	8
100813	10:51	1	r.luxury	55	2985	5
100813	10:51	1	r.scalding	56	2679	3
100813	10:51	1	r.hostage	57	1706	2
100813	10:51	1	r.social	58	2171	7
100813	10:51	1	r.pride	59	1474	8
100813	10:51	1	r.travel	60	1741	9
100813	10:51	1	howtype	1	11892	4
100813	11:03	1	speed	1	2994	53
100813	11:03	1	error	2	2151	98
100813	11:03	1	whichhand	3	6666	right
100813	11:03	1	f.glafe	1	11263	3
100813	11:03	1	f.prome	2	4005	6
100813	11:03	1	f.sneeg	3	3627	4
100813	11:03	1	f.glole	4	5440	6
100813	11:03	1	f.dwague	5	4462	7
100813	11:03	1	f.sleege	6	5001	4
100813	11:03	1	f.voom	7	4816	9
100813	11:03	1	f.spogue	8	4030	8
100813	11:03	1	f.zage	9	3163	7
100813	11:03	1	f.thweed	10	3290	6
100813	11:03	1	f.vood	11	2021	7
100813	11:03	1	f.snooch	12	1914	7
100813	11:03	1	f.jafe	13	2059	4
100813	11:03	1	f.kweeg	14	3903	6
100813	11:03	1	f.broog	15	3849	4
100813	11:03	1	f.dwake	16	4597	6
100813	11:03	1	f.gwoosh	17	8060	5
100813	11:03	1	f.sooch	18	7145	4
100813	11:03	1	f.voof	19	2754	4
100813	11:03	1	f.zave	20	2514	6
100813	11:03	1	f.thague	21	5579	7
100813	11:03	1	f.thood	22	4290	7
100813	11:03	1	f.krabe	23	5013	6
100813	11:03	1	f.dwothe	24	3027	6
100813	11:03	1	f.flague	25	3400	7
100813	11:03	1	f.theeve	26	2078	7
100813	11:03	1	f.yofe	27	1784	4
100813	11:03	1	f.drade	28	1815	7
100813	11:03	1	f.sweeve	29	2875	7
100813	11:03	1	f.glool	30	4687	4
100813	11:03	1	f.shroche	31	6594	5
100813	11:03	1	f.thwode	32	19993	4
100813	11:03	1	f.thwate	33	4476	6
100813	11:03	1	f.sleer	34	2511	7
100813	11:03	1	f.pogue	35	3393	7
100813	11:03	1	f.klache	36	2431	7
100813	11:03	1	f.tweech	37	2403	7
100813	11:03	1	f.snoosh	38	1545	7
100813	11:03	1	f.thane	39	1896	7
100813	11:03	1	f.zoche	40	3754	5
100813	11:03	1	f.plale	41	2722	6
100813	11:03	1	f.kobe	42	2459	6
100813	11:03	1	f.floob	43	3894	6
100813	11:03	1	f.pashe	44	2505	9
100813	11:03	1	f.thooge	45	8394	4
100813	11:03	1	f.kweed	46	2442	6
100813	11:03	1	f.gloshe	47	2791	4
100813	11:03	1	f.chobe	48	1861	4
100813	11:03	1	f.dofe	49	2360	4
100813	11:03	1	f.plache	50	2351	7
100813	11:03	1	f.kwoog	51	3062	6
100813	11:03	1	f.smove	52	4066	4
100813	11:03	1	f.thote	53	2668	4
100813	11:03	1	f.broge	54	7425	3
100813	11:03	1	f.pleeth	55	2703	6
100813	11:03	1	f.skoosh	56	2137	7
100813	11:03	1	f.kreer	57	1977	5
100813	11:03	1	f.dabe	58	1944	7
100813	11:03	1	f.feeg	59	2447	4
100813	11:03	1	f.dothe	60	5427	5
100813	11:03	1	r.money	1	3567	9
100813	11:03	1	r.infatuation	2	2400	8
100813	11:03	1	r.bees	3	3029	1
100813	11:03	1	r.flag	4	2602	7
100813	11:03	1	r.dead	5	2280	1
100813	11:03	1	r.pity	6	3306	2
100813	11:03	1	r.lazy	7	1971	1
100813	11:03	1	r.crushed	8	1571	1
100813	11:03	1	r.basket	9	2850	7
100813	11:03	1	r.headlight	10	1910	5
100813	11:03	1	r.FALSE	11	2215	1
100813	11:03	1	r.hospital	12	2804	9
100813	11:03	1	r.watch	13	2146	6
100813	11:03	1	r.win	14	1569	9
100813	11:03	1	r.vest	15	2208	4
100813	11:03	1	r.heal	16	2630	9
100813	11:03	1	r.demon	17	1827	1
100813	11:03	1	r.measles	18	1743	1
100813	11:03	1	r.jug	19	2014	5
100813	11:03	1	r.fur	20	2307	5
100813	11:03	1	r.cake	21	2109	8
100813	11:03	1	r.stove	22	2670	5
100813	11:03	1	r.surgery	23	3234	4
100813	11:03	1	r.powerful	24	1863	9
100813	11:03	1	r.bandage	25	3154	5
100813	11:03	1	r.beggar	26	2201	1
100813	11:03	1	r.rude	27	1255	1
100813	11:03	1	r.talent	28	1803	9
100813	11:03	1	r.muddy	29	2408	5
100813	11:03	1	r.cork	30	2174	4
100813	11:03	1	r.swift	31	2397	7
100813	11:03	1	r.material	32	3011	5
100813	11:03	1	r.politeness	33	1624	9
100813	11:03	1	r.taste	34	1741	9
100813	11:03	1	r.priest	35	2245	8
100813	11:03	1	r.silk	36	2145	9
100813	11:03	1	r.luxury	37	1161	9
100813	11:03	1	r.swimmer	38	1887	9
100813	11:03	1	r.art	39	1018	9
100813	11:03	1	r.soothe	40	942	9
100813	11:03	1	r.bomb	41	2358	1
100813	11:03	1	r.fatigued	42	1918	2
100813	11:03	1	r.fearful	43	1743	1
100813	11:03	1	r.justice	44	2646	9
100813	11:03	1	r.pencil	45	1666	8
100813	11:03	1	r.cuisine	46	19485	5
100813	11:03	1	r.agony	47	1869	1
100813	11:03	1	r.scream	48	952	1
100813	11:03	1	r.sugar	49	2167	6
100813	11:03	1	r.rancid	50	2950	5
100813	11:03	1	r.hawk	51	1566	6
100813	11:03	1	r.whistle	52	1589	9
100813	11:03	1	r.crown	53	1259	9
100813	11:03	1	r.slum	54	1575	1
100813	11:03	1	r.easygoing	55	1702	9
100813	11:03	1	r.ink	56	1871	6
100813	11:03	1	r.invest	57	1562	9
100813	11:03	1	r.free	58	1289	9
100813	11:03	1	r.hurt	59	4155	1
100813	11:03	1	r.torture	60	1539	1
100813	11:03	1	howtype	1	10481	7
100813	11:54	1	speed	1	3252	51
100813	11:54	1	error	2	1984	80
100813	11:54	1	whichhand	3	6983	right
100813	11:54	1	f.klofe	1	9344	4
100813	11:54	1	f.gwoop	2	2882	7
100813	11:54	1	f.throthe	3	2973	5
100813	11:54	1	f.pobe	4	1660	3
100813	11:54	1	f.frague	5	2751	6
100813	11:54	1	f.swase	6	1919	7
100813	11:54	1	f.smeeve	7	1776	8
100813	11:54	1	f.zoove	8	2806	9
100813	11:54	1	f.dwashe	9	2380	4
100813	11:54	1	f.plope	10	1995	5
100813	11:54	1	f.krothe	11	2760	3
100813	11:54	1	f.bleesh	12	2536	6
100813	11:54	1	f.thwope	13	1728	7
100813	11:54	1	f.groche	14	2776	2
100813	11:54	1	f.gwose	15	1711	3
100813	11:54	1	f.nooch	16	1752	4
100813	11:54	1	f.voof	17	2943	7
100813	11:54	1	f.twoor	18	2223	5
100813	11:54	1	f.dreeg	19	3468	6
100813	11:54	1	f.prage	20	1968	3
100813	11:54	1	f.skome	21	2983	2
100813	11:54	1	f.thashe	22	2165	5
100813	11:54	1	f.thween	23	1996	7
100813	11:54	1	f.gwope	24	3034	5
100813	11:54	1	f.thweeg	25	3687	7
100813	11:54	1	f.klabe	26	1609	3
100813	11:54	1	f.prooch	27	1902	5
100813	11:54	1	f.theeve	28	1655	6
100813	11:54	1	f.kwabe	29	2307	4
100813	11:54	1	f.broop	30	2141	8
100813	11:54	1	f.bloove	31	1622	6
100813	11:54	1	f.geech	32	2178	3
100813	11:54	1	f.thode	33	1897	5
100813	11:54	1	f.prale	34	1970	5
100813	11:54	1	f.gwoke	35	2121	6
100813	11:54	1	f.gleesh	36	5186	6
100813	11:54	1	f.twose	37	2010	3
100813	11:54	1	f.thweeve	38	1631	5
100813	11:54	1	f.thwode	39	2123	4
100813	11:54	1	f.skoshe	40	2532	6
100813	11:54	1	f.ploof	41	2156	7
100813	11:54	1	f.grooch	42	2972	5
100813	11:54	1	f.shrashe	43	3915	3
100813	11:54	1	f.threel	44	7445	6
100813	11:54	1	f.gleef	45	1770	7
100813	11:54	1	f.pleef	46	1977	6
100813	11:54	1	f.deeb	47	3280	7
100813	11:54	1	f.sweese	48	3258	8
100813	11:54	1	f.skeege	49	1798	7
100813	11:54	1	f.throge	50	1796	3
100813	11:54	1	f.vood	51	2153	7
100813	11:54	1	f.twogue	52	3121	5
100813	11:54	1	f.smoosh	53	2098	8
100813	11:54	1	f.stague	54	2156	2
100813	11:54	1	f.glole	55	2332	1
100813	11:54	1	f.grache	56	2276	5
100813	11:54	1	f.thwose	57	2495	4
100813	11:54	1	f.preesh	58	1697	6
100813	11:54	1	f.sleed	59	1634	7
100813	11:54	1	f.tweese	60	3886	3
100813	11:54	1	r.stove	1	3954	6
100813	11:54	1	r.bland	2	3170	2
100813	11:54	1	r.violent	3	3505	1
100813	11:54	1	r.guillotine	4	2699	1
100813	11:54	1	r.doll	5	2981	8
100813	11:54	1	r.curious	6	1708	5
100813	11:54	1	r.ridicule	7	1829	1
100813	11:54	1	r.egg	8	2314	5
100813	11:54	1	r.lucky	9	1675	9
100813	11:54	1	r.lust	10	1494	1
100813	11:54	1	r.ocean	11	2287	9
100813	11:54	1	r.knot	12	1706	3
100813	11:54	1	r.deserter	13	3435	1
100813	11:54	1	r.agreement	14	2080	7
100813	11:54	1	r.slap	15	1458	2
100813	11:54	1	r.lie	16	1382	1
100813	11:54	1	r.depression	17	1364	1
100813	11:54	1	r.limber	18	1803	5
100813	11:54	1	r.champion	19	1560	9
100813	11:54	1	r.yacht	20	2151	8
100813	11:54	1	r.writer	21	2615	8
100813	11:54	1	r.ache	22	1348	2
100813	11:54	1	r.FALSE	23	1931	1
100813	11:54	1	r.murderer	24	1516	1
100813	11:54	1	r.world	25	3668	9
100813	11:54	1	r.bake	26	2344	9
100813	11:54	1	r.protected	27	3272	9
100813	11:54	1	r.discomfort	28	2443	1
100813	11:54	1	r.item	29	2047	5
100813	11:54	1	r.spray	30	1491	5
100813	11:54	1	r.handsome	31	1845	8
100813	11:54	1	r.beggar	32	2064	1
100813	11:54	1	r.ace	33	2379	9
100813	11:54	1	r.noisy	34	2202	3
100813	11:54	1	r.scared	35	1855	1
100813	11:54	1	r.listless	36	1939	2
100813	11:54	1	r.glamour	37	2459	9
100813	11:54	1	r.fireworks	38	1671	9
100813	11:54	1	r.vigorous	39	2153	2
100813	11:54	1	r.gender	40	1521	5
100813	11:54	1	r.treasure	41	1482	8
100813	11:54	1	r.promotion	42	1756	9
100813	11:54	1	r.cold	43	1476	2
100813	11:54	1	r.autumn	44	2566	9
100813	11:54	1	r.pungent	45	2678	2
100813	11:54	1	r.arm	46	2040	5
100813	11:54	1	r.finger	47	1269	5
100813	11:54	1	r.poison	48	2071	1
100813	11:54	1	r.comfort	49	1762	9
100813	11:54	1	r.dinner	50	1969	9
100813	11:54	1	r.cork	51	2344	5
100813	11:54	1	r.gloom	52	1800	1
100813	11:54	1	r.surprised	53	1605	9
100813	11:54	1	r.phase	54	2427	5
100813	11:54	1	r.journal	55	2031	7
100813	11:54	1	r.immature	56	2156	3
100813	11:54	1	r.mosquito	57	1755	3
100813	11:54	1	r.terrific	58	1771	9
100813	11:54	1	r.nonchalant	59	3194	5
100813	11:54	1	r.obesity	60	1975	1
100813	11:54	1	howtype	1	6365	6
100813	12:32	1	speed	1	3296	54
100813	12:32	1	error	2	1676	98
100813	12:32	1	whichhand	3	5928	right
100813	12:32	1	r.incentive	1	8744	9
100813	12:32	1	r.dancer	2	7514	5
100813	12:32	1	r.kettle	3	1853	5
100813	12:32	1	r.scissors	4	2633	5
100813	12:32	1	r.deserter	5	4285	2
100813	12:32	1	r.gangrene	6	4888	5
100813	12:32	1	r.family	7	1787	9
100813	12:32	1	r.kindness	8	3250	9
100813	12:32	1	r.air	9	2862	5
100813	12:32	1	r.bees	10	4569	2
100813	12:32	1	r.fireworks	11	2657	7
100813	12:32	1	r.comfort	12	1836	9
100813	12:32	1	r.sinful	13	6073	4
100813	12:32	1	r.hairdryer	14	1477	5
100813	12:32	1	r.destroy	15	2023	2
100813	12:32	1	r.kiss	16	1588	9
100813	12:32	1	r.puppy	17	1162	9
100813	12:32	1	r.stupid	18	2449	2
100813	12:32	1	r.stink	19	2141	3
100813	12:32	1	r.dark	20	6469	6
100813	12:32	1	r.thankful	21	2010	5
100813	12:32	1	r.engine	22	1583	5
100813	12:32	1	r.detail	23	7845	5
100813	12:32	1	r.fungus	24	2194	1
100813	12:32	1	r.mushroom	25	1824	1
100813	12:32	1	r.hide	26	2589	5
100813	12:32	1	r.rejected	27	1859	1
100813	12:32	1	r.lump	28	2918	2
100813	12:32	1	r.swamp	29	2408	7
100813	12:32	1	r.contempt	30	2461	9
100813	12:32	1	r.gloom	31	1657	1
100813	12:32	1	r.prick	32	3244	5
100813	12:32	1	r.salute	33	1560	5
100813	12:32	1	r.tamper	34	2079	5
100813	12:32	1	r.regretful	35	3441	3
100813	12:32	1	r.sheltered	36	11454	3
100813	12:32	1	r.devoted	37	2765	8
100813	12:32	1	r.cat	38	2556	1
100813	12:32	1	r.beauty	39	3108	6
100813	12:32	1	r.improve	40	6613	8
100813	12:32	1	r.upset	41	1852	3
100813	12:32	1	r.hug	42	2336	7
100813	12:32	1	r.hawk	43	5912	5
100813	12:32	1	r.danger	44	2522	4
100813	12:32	1	r.scorching	45	2236	2
100813	12:32	1	r.good	46	1352	6
100813	12:32	1	r.trauma	47	2295	1
100813	12:32	1	r.dignified	48	2825	6
100813	12:32	1	r.christmas	49	1694	9
100813	12:32	1	r.crucify	50	2264	5
100813	12:32	1	r.scholar	51	2067	7
100813	12:32	1	r.event	52	2046	5
100813	12:32	1	r.red	53	3618	7
100813	12:32	1	r.spring	54	1879	8
100813	12:32	1	r.vacation	55	1369	9
100813	12:32	1	r.home	56	2952	2
100813	12:32	1	r.cemetery	57	2152	4
100813	12:32	1	r.bath	58	2120	5
100813	12:32	1	r.jug	59	2761	5
100813	12:32	1	r.noisy	60	2168	4
100813	12:32	1	f.froge	1	5158	5
100813	12:32	1	f.bleesh	2	2327	5
100813	12:32	1	f.seeg	3	903	5
100813	12:32	1	f.groche	4	2664	5
100813	12:32	1	f.throor	5	2556	5
100813	12:32	1	f.thwole	6	4675	2
100813	12:32	1	f.dwoot	7	1815	5
100813	12:32	1	f.yone	8	1996	5
100813	12:32	1	f.speet	9	3225	5
100813	12:32	1	f.floosh	10	1934	5
100813	12:32	1	f.yoge	11	3015	5
100813	12:32	1	f.thrage	12	876	5
100813	12:32	1	f.slage	13	1110	5
100813	12:32	1	f.gweel	14	3431	5
100813	12:32	1	f.snoosh	15	1172	5
100813	12:32	1	f.throop	16	3826	5
100813	12:32	1	f.kweese	17	2599	5
100813	12:32	1	f.gleel	18	3661	5
100813	12:32	1	f.skeese	19	1033	5
100813	12:32	1	f.fleef	20	1453	5
100813	12:32	1	f.mooth	21	1984	5
100813	12:32	1	f.yage	22	4870	5
100813	12:32	1	f.glole	23	778	5
100813	12:32	1	f.swofe	24	1336	5
100813	12:32	1	f.jeef	25	2784	5
100813	12:32	1	f.shroge	26	2135	5
100813	12:32	1	f.gwage	27	1655	5
100813	12:32	1	f.zeet	28	1387	5
100813	12:32	1	f.gloog	29	1729	5
100813	12:32	1	f.blafe	30	1033	5
100813	12:32	1	f.vame	31	1805	5
100813	12:32	1	f.klashe	32	739	5
100813	12:32	1	f.kwoom	33	2634	5
100813	12:32	1	f.gwate	34	1591	5
100813	12:32	1	f.kleeb	35	1453	5
100813	12:32	1	f.thweeth	36	3713	5
100813	12:32	1	f.yope	37	2034	5
100813	12:32	1	f.foof	38	2903	5
100813	12:32	1	f.slabe	39	969	5
100813	12:32	1	f.dwothe	40	2607	5
100813	12:32	1	f.troche	41	2677	5
100813	12:32	1	f.shreech	42	1248	5
100813	12:32	1	f.groshe	43	2067	5
100813	12:32	1	f.smashe	44	1670	5
100813	12:32	1	f.brabe	45	1289	5
100813	12:32	1	f.threek	46	1587	5
100813	12:32	1	f.flooge	47	5257	5
100813	12:32	1	f.thape	48	4678	4
100813	12:32	1	f.sneese	49	1601	4
100813	12:32	1	f.shoche	50	2375	3
100813	12:32	1	f.shrome	51	990	3
100813	12:32	1	f.krague	52	1204	3
100813	12:32	1	f.mathe	53	1593	3
100813	12:32	1	f.slale	54	1774	2
100813	12:32	1	f.sweese	55	1189	2
100813	12:32	1	f.fafe	56	4188	2
100813	12:32	1	f.drooze	57	1331	2
100813	12:32	1	f.shoob	58	1283	2
100813	12:32	1	f.bloosh	59	1413	2
100813	12:32	1	f.twoof	60	2385	2
100813	12:32	1	howtype	1	6783	6
100813	12:55	1	speed	1	2682	40
100813	12:55	1	error	2	1828	100
100813	12:55	1	whichhand	3	8793	Right
100813	12:55	1	r.spanking	1	4394	1
100813	12:55	1	r.obsession	2	3352	3
100813	12:55	1	r.scandal	3	2272	1
100813	12:55	1	r.nectar	4	3563	7
100813	12:55	1	r.impressed	5	3019	9
100813	12:55	1	r.lake	6	2432	8
100813	12:55	1	r.anxious	7	1917	2
100813	12:55	1	r.nourish	8	2406	5
100813	12:55	1	r.concentrate	9	2538	3
100813	12:55	1	r.robber	10	1676	1
100813	12:55	1	r.ambulance	11	1494	1
100813	12:55	1	r.humble	12	2224	8
100813	12:55	1	r.diver	13	2341	5
100813	12:55	1	r.thermometer	14	1565	5
100813	12:55	1	r.death	15	1492	1
100813	12:55	1	r.awed	16	2614	7
100813	12:55	1	r.bird	17	2523	7
100813	12:55	1	r.wedding	18	1821	8
100813	12:55	1	r.advantage	19	1601	8
100813	12:55	1	r.chair	20	2127	5
100813	12:55	1	r.dazzle	21	1711	8
100813	12:55	1	r.penthouse	22	3064	7
100813	12:55	1	r.alley	23	1931	2
100813	12:55	1	r.truck	24	1548	5
100813	12:55	1	r.dentist	25	2739	6
100813	12:55	1	r.vest	26	2012	6
100813	12:55	1	r.idea	27	1921	5
100813	12:55	1	r.obnoxious	28	2914	1
100813	12:55	1	r.valentine	29	2611	8
100813	12:55	1	r.birthday	30	4056	8
100813	12:55	1	r.kids	31	2004	7
100813	12:55	1	r.cash	32	1698	9
100813	12:55	1	r.bowl	33	1556	5
100813	12:55	1	r.safe	34	2531	9
100813	12:55	1	r.execution	35	1444	1
100813	12:55	1	r.listless	36	3463	3
100813	12:55	1	r.journal	37	1707	8
100813	12:55	1	r.mutation	38	3020	7
100813	12:55	1	r.headlight	39	2497	5
100813	12:55	1	r.intimate	40	2115	8
100813	12:55	1	r.crude	41	1972	5
100813	12:55	1	r.funeral	42	1699	1
100813	12:55	1	r.inspired	43	3861	8
100813	12:55	1	r.excitement	44	1840	9
100813	12:55	1	r.restaurant	45	1813	8
100813	12:55	1	r.street	46	1466	5
100813	12:55	1	r.scum	47	1844	1
100813	12:55	1	r.germs	48	2280	1
100813	12:55	1	r.waterfall	49	2026	8
100813	12:55	1	r.coward	50	2839	3
100813	12:55	1	r.pervert	51	1691	1
100813	12:55	1	r.distressed	52	1230	1
100813	12:55	1	r.easy	53	4058	7
100813	12:55	1	r.letter	54	1654	8
100813	12:55	1	r.pasta	55	1865	9
100813	12:55	1	r.beach	56	2028	8
100813	12:55	1	r.displeased	57	1897	3
100813	12:55	1	r.house	58	2050	8
100813	12:55	1	r.candy	59	5486	8
100813	12:55	1	r.afraid	60	1849	1
100813	12:55	1	f.shreege	1	4577	1
100813	12:55	1	f.dwoop	2	3824	4
100813	12:55	1	f.smeeb	3	2678	6
100813	12:55	1	f.kweege	4	2769	6
100813	12:55	1	f.zoot	5	2952	7
100813	12:55	1	f.shose	6	3728	4
100813	12:55	1	f.thwoosh	7	1593	5
100813	12:55	1	f.prothe	8	4334	3
100813	12:55	1	f.froog	9	3663	4
100813	12:55	1	f.kwooch	10	6419	4
100813	12:55	1	f.thoge	11	2905	6
100813	12:55	1	f.smague	12	2163	2
100813	12:55	1	f.throshe	13	1994	2
100813	12:55	1	f.neeth	14	5472	1
100813	12:55	1	f.floog	15	1844	1
100813	12:55	1	f.glogue	16	2455	1
100813	12:55	1	f.moshe	17	2427	6
100813	12:55	1	f.vave	18	4920	8
100813	12:55	1	f.skafe	19	2210	7
100813	12:55	1	f.dooch	20	3127	2
100813	12:55	1	f.twooch	21	2407	4
100813	12:55	1	f.frache	22	2573	4
100813	12:55	1	f.chade	23	2484	5
100813	12:55	1	f.swoze	24	1703	2
100813	12:55	1	f.kwoop	25	1840	2
100813	12:55	1	f.dwore	26	2005	1
100813	12:55	1	f.kroche	27	2194	2
100813	12:55	1	f.yoop	28	3800	6
100813	12:55	1	f.sashe	29	3014	7
100813	12:55	1	f.thone	30	3435	5
100813	12:55	1	f.glooch	31	1408	5
100813	12:55	1	f.shrooch	32	1174	4
100813	12:55	1	f.smafe	33	1644	3
100813	12:55	1	f.twathe	34	2048	1
100813	12:55	1	f.krabe	35	4372	7
100813	12:55	1	f.smood	36	3323	7
100813	12:55	1	f.drore	37	2205	4
100813	12:55	1	f.blogue	38	4634	3
100813	12:55	1	f.shage	39	2247	3
100813	12:55	1	f.thogue	40	1611	4
100813	12:55	1	f.prame	41	2224	5
100813	12:55	1	f.snooth	42	3125	7
100813	12:55	1	f.nache	43	2054	5
100813	12:55	1	f.zate	44	3266	7
100813	12:55	1	f.droor	45	3206	8
100813	12:55	1	f.thwoove	46	1604	4
100813	12:55	1	f.thofe	47	2281	2
100813	12:55	1	f.snoove	48	2844	6
100813	12:55	1	f.bashe	49	2127	4
100813	12:55	1	f.choom	50	3528	4
100813	12:55	1	f.zeesh	51	2569	9
100813	12:55	1	f.bloshe	52	2408	7
100813	12:55	1	f.twoche	53	2846	4
100813	12:55	1	f.thwood	54	3001	4
100813	12:55	1	f.chage	55	3511	5
100813	12:55	1	f.gooch	56	2041	7
100813	12:55	1	f.plool	57	3405	4
100813	12:55	1	f.smoove	58	2811	5
100813	12:55	1	f.stooch	59	2841	3
100813	12:55	1	f.drafe	60	1637	3
100813	12:55	1	howtype	1	8504	5
100813	14:28	1	speed	1	3119	55
100813	14:28	1	error	2	1986	92
100813	14:28	1	whichhand	3	5649	right
100813	14:28	1	f.gwoog	1	5355	3
100813	14:28	1	f.threed	2	4508	5
100813	14:28	1	f.shrafe	3	2446	3
100813	14:28	1	f.lool	4	2770	7
100813	14:28	1	f.speeg	5	2497	5
100813	14:28	1	f.yape	6	2347	2
100813	14:28	1	f.prage	7	5699	6
100813	14:28	1	f.plare	8	1846	6
100813	14:28	1	f.stoob	9	2465	8
100813	14:28	1	f.gwoze	10	2005	3
100813	14:28	1	f.gwoche	11	1642	3
100813	14:28	1	f.tweese	12	2014	7
100813	14:28	1	f.yoove	13	2011	5
100813	14:28	1	f.thate	14	3032	6
100813	14:28	1	f.kloof	15	1661	7
100813	14:28	1	f.dreeg	16	1584	3
100813	14:28	1	f.gwoop	17	2014	7
100813	14:28	1	f.speege	18	1371	5
100813	14:28	1	f.sneef	19	2066	2
100813	14:28	1	f.drore	20	2941	4
100813	14:28	1	f.gloof	21	1605	7
100813	14:28	1	f.toosh	22	1819	8
100813	14:28	1	f.togue	23	2912	4
100813	14:28	1	f.meesh	24	1897	6
100813	14:28	1	f.spathe	25	1819	7
100813	14:28	1	f.shrate	26	1376	2
100813	14:28	1	f.shrothe	27	2398	3
100813	14:28	1	f.prope	28	1261	6
100813	14:28	1	f.swoove	29	1959	7
100813	14:28	1	f.swaze	30	1167	7
100813	14:28	1	f.thane	31	1805	6
100813	14:28	1	f.boove	32	1803	4
100813	14:28	1	f.feech	33	2033	6
100813	14:28	1	f.boshe	34	1773	6
100813	14:28	1	f.gloke	35	2028	7
100813	14:28	1	f.speesh	36	1479	7
100813	14:28	1	f.shreech	37	1210	4
100813	14:28	1	f.klole	38	1287	4
100813	14:28	1	f.brothe	39	1289	7
100813	14:28	1	f.dwoche	40	1635	2
100813	14:28	1	f.groog	41	951	2
100813	14:28	1	f.nofe	42	1038	2
100813	14:28	1	f.poob	43	1459	1
100813	14:28	1	f.gwame	44	2078	3
100813	14:28	1	f.nabe	45	1304	3
100813	14:28	1	f.dreed	46	1258	3
100813	14:28	1	f.gwogue	47	693	3
100813	14:28	1	f.voge	48	1630	7
100813	14:28	1	f.slague	49	1403	3
100813	14:28	1	f.thwoose	50	2208	5
100813	14:28	1	f.gwooge	51	1294	3
100813	14:28	1	f.throle	52	1943	6
100813	14:28	1	f.glache	53	1607	5
100813	14:28	1	f.shoge	54	1260	4
100813	14:28	1	f.neege	55	991	4
100813	14:28	1	f.neech	56	1357	7
100813	14:28	1	f.thweege	57	1365	3
100813	14:28	1	f.draze	58	1347	6
100813	14:28	1	f.jeet	59	1387	8
100813	14:28	1	f.shrame	60	2001	4
100813	14:28	1	r.pillow	1	3264	7
100813	14:28	1	r.derelict	2	2012	3
100813	14:28	1	r.tune	3	2697	8
100813	14:28	1	r.rescue	4	2010	8
100813	14:28	1	r.pretty	5	943	8
100813	14:28	1	r.mucus	6	1799	2
100813	14:28	1	r.powerful	7	1252	8
100813	14:28	1	r.capable	8	1152	8
100813	14:28	1	r.field	9	1551	5
100813	14:28	1	r.morbid	10	1743	1
100813	14:28	1	r.cellar	11	1143	1
100813	14:28	1	r.romantic	12	1334	9
100813	14:28	1	r.intercourse	13	2622	7
100813	14:28	1	r.joke	14	2587	7
100813	14:28	1	r.filth	15	2226	1
100813	14:28	1	r.crisis	16	1446	2
100813	14:28	1	r.silly	17	1658	8
100813	14:28	1	r.surprised	18	1629	7
100813	14:28	1	r.puppy	19	1266	9
100813	14:28	1	r.syphilis	20	1636	1
100813	14:28	1	r.elbow	21	1352	5
100813	14:28	1	r.hat	22	1184	5
100813	14:28	1	r.tender	23	1318	6
100813	14:28	1	r.nightmare	24	1575	2
100813	14:28	1	r.lighthouse	25	1494	7
100813	14:28	1	r.blind	26	1543	1
100813	14:28	1	r.fat	27	1334	1
100813	14:28	1	r.city	28	1583	7
100813	14:28	1	r.mushroom	29	1285	1
100813	14:28	1	r.restaurant	30	1359	8
100813	14:28	1	r.neurotic	31	1663	1
100813	14:28	1	r.wagon	32	1305	6
100813	14:28	1	r.good	33	1331	8
100813	14:28	1	r.avenue	34	1875	5
100813	14:28	1	r.muddy	35	2694	4
100813	14:28	1	r.crushed	36	5128	2
100813	14:28	1	r.teacher	37	2241	5
100813	14:28	1	r.virgin	38	2109	8
100813	14:28	1	r.sailboat	39	1374	6
100813	14:28	1	r.nasty	40	1629	1
100813	14:28	1	r.exercise	41	1265	7
100813	14:28	1	r.scar	42	1444	5
100813	14:28	1	r.dirt	43	1872	3
100813	14:28	1	r.journal	44	1387	7
100813	14:28	1	r.python	45	1528	1
100813	14:28	1	r.betray	46	729	1
100813	14:28	1	r.applause	47	1353	8
100813	14:28	1	r.refreshment	48	1456	8
100813	14:28	1	r.game	49	1244	8
100813	14:28	1	r.cuisine	50	2119	7
100813	14:28	1	r.mystic	51	2256	5
100813	14:28	1	r.awed	52	2300	8
100813	14:28	1	r.snake	53	1598	1
100813	14:28	1	r.sky	54	6819	7
100813	14:28	1	r.fireworks	55	1314	8
100813	14:28	1	r.cottage	56	1098	7
100813	14:28	1	r.christmas	57	1156	9
100813	14:28	1	r.basket	58	1707	5
100813	14:28	1	r.immature	59	1429	3
100813	14:28	1	r.trophy	60	1497	8
100813	14:28	1	howtype	1	6729	6
100813	15:31	1	speed	1	3381	48
100813	15:31	1	error	2	2220	93
100813	15:31	1	whichhand	3	6769	right
100813	15:31	1	f.kroshe	1	14045	2
100813	15:31	1	f.tweese	2	3740	4
100813	15:31	1	f.dwooch	3	6885	2
100813	15:31	1	f.tague	4	4337	1
100813	15:31	1	f.yache	5	2538	4
100813	15:31	1	f.kwooge	6	2842	2
100813	15:31	1	f.shreech	7	5670	2
100813	15:31	1	f.breeth	8	3754	8
100813	15:31	1	f.seeb	9	3435	5
100813	15:31	1	f.dwoche	10	3479	3
100813	15:31	1	f.wache	11	2394	5
100813	15:31	1	f.zothe	12	5568	3
100813	15:31	1	f.gwooch	13	3768	2
100813	15:31	1	f.koog	14	4560	4
100813	15:31	1	f.thoche	15	4247	5
100813	15:31	1	f.glool	16	3964	4
100813	15:31	1	f.plape	17	3475	4
100813	15:31	1	f.klole	18	3846	3
100813	15:31	1	f.dathe	19	4578	1
100813	15:31	1	f.theek	20	4138	5
100813	15:31	1	f.theel	21	2091	5
100813	15:31	1	f.gwove	22	2245	6
100813	15:31	1	f.plooge	23	3049	6
100813	15:31	1	f.floof	24	2556	7
100813	15:31	1	f.kleel	25	2148	4
100813	15:31	1	f.zade	26	3500	7
100813	15:31	1	f.thwaze	27	2358	6
100813	15:31	1	f.thooch	28	3829	5
100813	15:31	1	f.gweek	29	1803	6
100813	15:31	1	f.throom	30	2505	6
100813	15:31	1	f.thoog	31	6546	3
100813	15:31	1	f.slashe	32	5259	6
100813	15:31	1	f.yage	33	5487	5
100813	15:31	1	f.yome	34	3939	5
100813	15:31	1	f.snafe	35	3140	6
100813	15:31	1	f.slache	36	2260	5
100813	15:31	1	f.steesh	37	5879	7
100813	15:31	1	f.shrove	38	3979	5
100813	15:31	1	f.twooch	39	2386	4
100813	15:31	1	f.yoot	40	2240	5
100813	15:31	1	f.gwague	41	4613	3
100813	15:31	1	f.thweeth	42	2426	4
100813	15:31	1	f.yeef	43	6319	4
100813	15:31	1	f.stoob	44	3889	3
100813	15:31	1	f.bove	45	7868	5
100813	15:31	1	f.thool	46	2569	6
100813	15:31	1	f.nathe	47	3168	5
100813	15:31	1	f.flague	48	3432	8
100813	15:31	1	f.sache	49	2309	7
100813	15:31	1	f.brape	50	2390	5
100813	15:31	1	f.teesh	51	3957	5
100813	15:31	1	f.snague	52	1909	4
100813	15:31	1	f.sashe	53	2358	7
100813	15:31	1	f.thrave	54	4886	6
100813	15:31	1	f.dwook	55	3001	5
100813	15:31	1	f.frashe	56	2392	8
100813	15:31	1	f.dwome	57	4790	3
100813	15:31	1	f.groche	58	2109	2
100813	15:31	1	f.throob	59	2406	3
100813	15:31	1	f.chooth	60	4348	3
100813	15:31	1	r.maggot	1	5039	2
100813	15:31	1	r.privacy	2	10204	7
100813	15:31	1	r.sour	3	6485	6
100813	15:31	1	r.swamp	4	2713	2
100813	15:31	1	r.cemetery	5	2554	1
100813	15:31	1	r.money	6	1954	9
100813	15:31	1	r.hawk	7	4817	7
100813	15:31	1	r.spider	8	2399	3
100813	15:31	1	r.pet	9	2029	9
100813	15:31	1	r.fame	10	2209	9
100813	15:31	1	r.elbow	11	2198	5
100813	15:31	1	r.garter	12	4468	5
100813	15:31	1	r.devoted	13	1864	8
100813	15:31	1	r.tense	14	2203	3
100813	15:31	1	r.wagon	15	1528	5
100813	15:31	1	r.exercise	16	2489	8
100813	15:31	1	r.hard	17	3091	3
100813	15:31	1	r.perfume	18	4262	7
100813	15:31	1	r.idea	19	3385	6
100813	15:31	1	r.joy	20	1648	9
100813	15:31	1	r.sailboat	21	2284	7
100813	15:31	1	r.army	22	7493	6
100813	15:31	1	r.assassin	23	2385	1
100813	15:31	1	r.health	24	1872	8
100813	15:31	1	r.cuisine	25	2083	9
100813	15:31	1	r.crushed	26	5309	2
100813	15:31	1	r.bouquet	27	2327	7
100813	15:31	1	r.treasure	28	1552	9
100813	15:31	1	r.yacht	29	1327	9
100813	15:31	1	r.cozy	30	3199	8
100813	15:31	1	r.wasp	31	2541	2
100813	15:31	1	r.sex	32	3238	8
100813	15:31	1	r.dog	33	8202	9
100813	15:31	1	r.bland	34	3578	5
100813	15:31	1	r.controlling	35	4449	3
100813	15:31	1	r.scornful	36	2245	2
100813	15:31	1	r.riot	37	2361	1
100813	15:31	1	r.riches	38	1632	8
100813	15:31	1	r.fantasy	39	1548	9
100813	15:31	1	r.pancakes	40	1964	6
100813	15:31	1	r.easy	41	1795	9
100813	15:31	1	r.event	42	3080	7
100813	15:31	1	r.radio	43	1371	9
100813	15:31	1	r.rejected	44	1618	1
100813	15:31	1	r.prairie	45	2991	6
100813	15:31	1	r.month	46	1789	5
100813	15:31	1	r.casino	47	1892	8
100813	15:31	1	r.outdoors	48	1486	9
100813	15:31	1	r.dirty	49	2400	2
100813	15:31	1	r.jail	50	1918	1
100813	15:31	1	r.plane	51	1879	6
100813	15:31	1	r.defeated	52	1985	2
100813	15:31	1	r.athletics	53	1399	8
100813	15:31	1	r.dummy	54	4309	2
100813	15:31	1	r.menace	55	4471	4
100813	15:31	1	r.handicap	56	3178	3
100813	15:31	1	r.crucify	57	2793	1
100813	15:31	1	r.square	58	1215	5
100813	15:31	1	r.baby	59	2116	7
100813	15:31	1	r.irritate	60	2773	2
100813	15:31	1	howtype	1	10355	6
100813	15:55	1	speed	1	2717	54
100813	15:55	1	error	2	1806	98
100813	15:55	1	whichhand	3	8020	Right
100813	15:55	1	f.twome	1	14080	5
100813	15:55	1	f.nache	2	5038	4
100813	15:55	1	f.pobe	3	1748	3
100813	15:55	1	f.kwague	4	2067	7
100813	15:55	1	f.skeeve	5	5054	6
100813	15:55	1	f.stothe	6	3971	5
100813	15:55	1	f.klood	7	2610	3
100813	15:55	1	f.kwope	8	9191	6
100813	15:55	1	f.thwashe	9	6751	5
100813	15:55	1	f.thwoge	10	2297	4
100813	15:55	1	f.plothe	11	2258	7
100813	15:55	1	f.sneef	12	6006	3
100813	15:55	1	f.thoof	13	2565	5
100813	15:55	1	f.thweek	14	2308	7
100813	15:55	1	f.yafe	15	4134	7
100813	15:55	1	f.brague	16	1807	8
100813	15:55	1	f.freech	17	1677	8
100813	15:55	1	f.kleel	18	6086	7
100813	15:55	1	f.kroshe	19	2162	6
100813	15:55	1	f.peeb	20	1993	3
100813	15:55	1	f.draze	21	4727	6
100813	15:55	1	f.twooth	22	4656	5
100813	15:55	1	f.mafe	23	3349	4
100813	15:55	1	f.frafe	24	3269	3
100813	15:55	1	f.plole	25	3264	4
100813	15:55	1	f.smogue	26	10779	5
100813	15:55	1	f.gweeze	27	4421	5
100813	15:55	1	f.breeb	28	2154	4
100813	15:55	1	f.thweem	29	1426	7
100813	15:55	1	f.glale	30	1447	5
100813	15:55	1	f.flogue	31	4722	6
100813	15:55	1	f.skothe	32	4284	4
100813	15:55	1	f.thwake	33	3375	7
100813	15:55	1	f.voke	34	4399	7
100813	15:55	1	f.swofe	35	2461	6
100813	15:55	1	f.smoob	36	2848	3
100813	15:55	1	f.wague	37	4468	6
100813	15:55	1	f.brashe	38	8840	4
100813	15:55	1	f.kroor	39	1814	3
100813	15:55	1	f.drooch	40	2083	6
100813	15:55	1	f.rashe	41	2653	5
100813	15:55	1	f.freep	42	2682	4
100813	15:55	1	f.froob	43	1228	7
100813	15:55	1	f.thane	44	2048	7
100813	15:55	1	f.kroob	45	3507	5
100813	15:55	1	f.feech	46	1854	7
100813	15:55	1	f.gwogue	47	2681	3
100813	15:55	1	f.zake	48	4092	5
100813	15:55	1	f.zague	49	2798	6
100813	15:55	1	f.dwale	50	3844	5
100813	15:55	1	f.shrooch	51	2968	7
100813	15:55	1	f.twool	52	2360	3
100813	15:55	1	f.shreet	53	3063	6
100813	15:55	1	f.skeeg	54	3866	6
100813	15:55	1	f.troob	55	6550	7
100813	15:55	1	f.soshe	56	2183	4
100813	15:55	1	f.thook	57	2149	3
100813	15:55	1	f.dwoche	58	2069	6
100813	15:55	1	f.kwaze	59	1776	7
100813	15:55	1	f.shreege	60	1382	7
100813	15:55	1	r.save	1	9990	9
100813	15:55	1	r.butter	2	7310	7
100813	15:55	1	r.knowledge	3	1473	8
100813	15:55	1	r.violent	4	2956	2
100813	15:55	1	r.cat	5	3396	7
100813	15:55	1	r.prestige	6	2562	5
100813	15:55	1	r.humane	7	2121	7
100813	15:55	1	r.pencil	8	2810	4
100813	15:55	1	r.luxury	9	7415	9
100813	15:55	1	r.prairie	10	2838	8
100813	15:55	1	r.impair	11	4058	3
100813	15:55	1	r.pleasure	12	1719	9
100813	15:55	1	r.leprosy	13	2256	1
100813	15:55	1	r.termite	14	1667	1
100813	15:55	1	r.ketchup	15	2646	7
100813	15:55	1	r.feeble	16	1682	5
100813	15:55	1	r.hat	17	9236	6
100813	15:55	1	r.mail	18	3723	5
100813	15:55	1	r.scissors	19	1860	6
100813	15:55	1	r.skeptical	20	4503	4
100813	15:55	1	r.intimate	21	2482	9
100813	15:55	1	r.rescue	22	3620	9
100813	15:55	1	r.life	23	2650	9
100813	15:55	1	r.scared	24	2494	2
100813	15:55	1	r.trauma	25	3392	1
100813	15:55	1	r.heal	26	2734	9
100813	15:55	1	r.concentrate	27	7335	5
100813	15:55	1	r.talent	28	2313	7
100813	15:55	1	r.crucify	29	3146	1
100813	15:55	1	r.body	30	3002	6
100813	15:55	1	r.annoy	31	2784	3
100813	15:55	1	r.icebox	32	4518	5
100813	15:55	1	r.pest	33	4040	2
100813	15:55	1	r.blase	34	1621	5
100813	15:55	1	r.regretful	35	1906	1
100813	15:55	1	r.radio	36	2892	8
100813	15:55	1	r.tank	37	6566	5
100813	15:55	1	r.luscious	38	1439	9
100813	15:55	1	r.treasure	39	1403	8
100813	15:55	1	r.abundance	40	2144	7
100813	15:55	1	r.coffin	41	2032	2
100813	15:55	1	r.leader	42	4924	5
100813	15:55	1	r.obesity	43	2862	2
100813	15:55	1	r.glory	44	2874	8
100813	15:55	1	r.palace	45	3565	7
100813	15:55	1	r.festive	46	2380	9
100813	15:55	1	r.insect	47	1803	1
100813	15:55	1	r.illness	48	1800	1
100813	15:55	1	r.execution	49	2446	1
100813	15:55	1	r.insult	50	2322	2
100813	15:55	1	r.fraud	51	1299	3
100813	15:55	1	r.depressed	52	2228	2
100813	15:55	1	r.market	53	4089	6
100813	15:55	1	r.person	54	3212	8
100813	15:55	1	r.nourish	55	2945	9
100813	15:55	1	r.shark	56	1865	2
100813	15:55	1	r.shriek	57	2404	3
100813	15:55	1	r.beach	58	1913	9
100813	15:55	1	r.chair	59	2179	5
100813	15:55	1	r.resent	60	2065	3
100813	15:55	1	howtype	1	21835	6
100813	16:27	1	speed	1	3115	40
100813	16:27	1	error	2	1859	95
100813	16:27	1	whichhand	3	9575	right
100813	16:27	1	f.dwape	1	8599	3
100813	16:27	1	f.dwoot	2	4646	4
100813	16:27	1	f.broor	3	3419	4
100813	16:27	1	f.kwoze	4	2872	1
100813	16:27	1	f.tweesh	5	4484	5
100813	16:27	1	f.thwode	6	1575	3
100813	16:27	1	f.chogue	7	1390	4
100813	16:27	1	f.dague	8	1524	4
100813	16:27	1	f.dweet	9	2669	4
100813	16:27	1	f.sleem	10	1944	5
100813	16:27	1	f.yove	11	2376	4
100813	16:27	1	f.vashe	12	2670	4
100813	16:27	1	f.stose	13	1577	4
100813	16:27	1	f.skashe	14	2055	3
100813	16:27	1	f.shrogue	15	3547	5
100813	16:27	1	f.drabe	16	1667	3
100813	16:27	1	f.gweeve	17	2254	2
100813	16:27	1	f.threech	18	1762	5
100813	16:27	1	f.kroshe	19	1304	4
100813	16:27	1	f.stoshe	20	1810	3
100813	16:27	1	f.kroor	21	2151	2
100813	16:27	1	f.stabe	22	3047	3
100813	16:27	1	f.sleef	23	1827	5
100813	16:27	1	f.theet	24	1663	5
100813	16:27	1	f.smeese	25	3050	3
100813	16:27	1	f.skoob	26	2845	5
100813	16:27	1	f.foop	27	1490	3
100813	16:27	1	f.smooze	28	3268	3
100813	16:27	1	f.twoom	29	1327	3
100813	16:27	1	f.yeege	30	2288	6
100813	16:27	1	f.gware	31	1226	3
100813	16:27	1	f.kloosh	32	2447	2
100813	16:27	1	f.twobe	33	2722	2
100813	16:27	1	f.twame	34	2708	2
100813	16:27	1	f.poshe	35	1302	3
100813	16:27	1	f.drague	36	1479	3
100813	16:27	1	f.beeg	37	1825	3
100813	16:27	1	f.leech	38	1934	5
100813	16:27	1	f.spathe	39	6718	4
100813	16:27	1	f.yogue	40	2297	4
100813	16:27	1	f.shage	41	1514	3
100813	16:27	1	f.mabe	42	1659	5
100813	16:27	1	f.dwogue	43	1566	2
100813	16:27	1	f.sweege	44	1453	2
100813	16:27	1	f.smoosh	45	1312	4
100813	16:27	1	f.slooch	46	2145	3
100813	16:27	1	f.snode	47	1873	3
100813	16:27	1	f.thole	48	1740	3
100813	16:27	1	f.foof	49	2508	3
100813	16:27	1	f.proche	50	4574	3
100813	16:27	1	f.plove	51	2070	4
100813	16:27	1	f.smeeze	52	5001	3
100813	16:27	1	f.prape	53	2439	4
100813	16:27	1	f.groche	54	2172	4
100813	16:27	1	f.drooze	55	2459	3
100813	16:27	1	f.fleege	56	1823	4
100813	16:27	1	f.chood	57	2195	3
100813	16:27	1	f.shreet	58	2137	3
100813	16:27	1	f.yeech	59	1962	3
100813	16:27	1	f.zave	60	2641	6
100813	16:27	1	r.inferior	1	2456	5
100813	16:27	1	r.spring	2	1876	6
100813	16:27	1	r.nourish	3	2470	5
100813	16:27	1	r.hydrant	4	2377	4
100813	16:27	1	r.rejected	5	1864	3
100813	16:27	1	r.accident	6	1419	5
100813	16:27	1	r.victim	7	2344	5
100813	16:27	1	r.lawsuit	8	2999	5
100813	16:27	1	r.heaven	9	2941	5
100813	16:27	1	r.scream	10	1966	6
100813	16:27	1	r.lightbulb	11	3061	6
100813	16:27	1	r.ocean	12	4104	5
100813	16:27	1	r.heal	13	1715	6
100813	16:27	1	r.farm	14	2164	7
100813	16:27	1	r.trunk	15	2402	8
100813	16:27	1	r.cash	16	1584	7
100813	16:27	1	r.addict	17	2030	6
100813	16:27	1	r.trumpet	18	1283	7
100813	16:27	1	r.letter	19	1285	7
100813	16:27	1	r.spider	20	2511	5
100813	16:27	1	r.flag	21	1752	6
100813	16:27	1	r.leader	22	3088	8
100813	16:27	1	r.hostage	23	3778	7
100813	16:27	1	r.dancer	24	2409	4
100813	16:27	1	r.trauma	25	1470	5
100813	16:27	1	r.urine	26	1601	3
100813	16:27	1	r.sapphire	27	2935	9
100813	16:27	1	r.wink	28	2039	6
100813	16:27	1	r.breeze	29	8180	6
100813	16:27	1	r.pride	30	2452	8
100813	16:27	1	r.wasp	31	4360	4
100813	16:27	1	r.wise	32	3479	5
100813	16:27	1	r.narcotic	33	3690	3
100813	16:27	1	r.employment	34	2517	6
100813	16:27	1	r.avalanche	35	2094	4
100813	16:27	1	r.severe	36	2968	4
100813	16:27	1	r.wish	37	1679	6
100813	16:27	1	r.fire	38	1657	5
100813	16:27	1	r.fungus	39	2229	3
100813	16:27	1	r.fraud	40	1993	4
100813	16:27	1	r.decorate	41	2647	3
100813	16:27	1	r.kick	42	3275	7
100813	16:27	1	r.discomfort	43	3374	5
100813	16:27	1	r.sex	44	3886	5
100813	16:27	1	r.joy	45	1016	6
100813	16:27	1	r.funeral	46	3949	4
100813	16:27	1	r.good	47	3453	5
100813	16:27	1	r.rattle	48	2370	5
100813	16:27	1	r.infatuation	49	2336	4
100813	16:27	1	r.failure	50	2721	3
100813	16:27	1	r.bless	51	3802	4
100813	16:27	1	r.confident	52	2456	9
100813	16:27	1	r.rancid	53	2924	6
100813	16:27	1	r.gender	54	2374	5
100813	16:27	1	r.incentive	55	2164	6
100813	16:27	1	r.sentiment	56	1428	4
100813	16:27	1	r.caress	57	5696	6
100813	16:27	1	r.startled	58	1923	6
100813	16:27	1	r.useless	59	1868	6
100813	16:27	1	r.proud	60	4622	7
100813	16:27	1	howtype	1	11491	7
100913	11:59	1	speed	1	5701	35
100913	11:59	1	error	2	1483	91
100913	11:59	1	whichhand	3	20299	right
100913	11:59	1	r.book	1	9512	6
100913	11:59	1	r.gentle	2	2811	8
100913	11:59	1	r.hit	3	2025	4
100913	11:59	1	r.plant	4	2550	4
100913	11:59	1	r.writer	5	1926	6
100913	11:59	1	r.naked	6	1910	3
100913	11:59	1	r.drown	7	3551	3
100913	11:59	1	r.devil	8	5552	2
100913	11:59	1	r.surprised	9	1792	8
100913	11:59	1	r.ink	10	1831	4
100913	11:59	1	r.prison	11	5523	4
100913	11:59	1	r.angel	12	3205	8
100913	11:59	1	r.smooth	13	2659	8
100913	11:59	1	r.jolly	14	1479	7
100913	11:59	1	r.tamper	15	2833	6
100913	11:59	1	r.greet	16	1598	8
100913	11:59	1	r.cliff	17	1643	5
100913	11:59	1	r.silly	18	1886	8
100913	11:59	1	r.mildew	19	2729	2
100913	11:59	1	r.fat	20	1849	2
100913	11:59	1	r.repentant	21	2549	3
100913	11:59	1	r.quality	22	2021	6
100913	11:59	1	r.invader	23	1562	3
100913	11:59	1	r.shadow	24	3385	6
100913	11:59	1	r.devoted	25	6959	5
100913	11:59	1	r.noisy	26	2928	6
100913	11:59	1	r.flower	27	1576	7
100913	11:59	1	r.discouraged	28	5966	2
100913	11:59	1	r.lottery	29	1983	6
100913	11:59	1	r.embarrassed	30	3885	1
100913	11:59	1	r.bankrupt	31	1528	1
100913	11:59	1	r.movie	32	1352	9
100913	11:59	1	r.outrage	33	2192	2
100913	11:59	1	r.virgin	34	1982	5
100913	11:59	1	r.holiday	35	1356	8
100913	11:59	1	r.dignified	36	2340	6
100913	11:59	1	r.curtains	37	2276	5
100913	11:59	1	r.dream	38	2679	9
100913	11:59	1	r.odd	39	2425	6
100913	11:59	1	r.depression	40	3710	4
100913	11:59	1	r.pet	41	1288	6
100913	11:59	1	r.black	42	2746	5
100913	11:59	1	r.beach	43	1858	9
100913	11:59	1	r.disappoint	44	1653	5
100913	11:59	1	r.earth	45	2241	5
100913	11:59	1	r.shark	46	2557	1
100913	11:59	1	r.answer	47	3205	5
100913	11:59	1	r.meek	48	1635	2
100913	11:59	1	r.foam	49	2576	4
100913	11:59	1	r.garden	50	1351	5
100913	11:59	1	r.nonsense	51	5366	4
100913	11:59	1	r.scorching	52	2742	2
100913	11:59	1	r.glamour	53	2854	7
100913	11:59	1	r.menace	54	3665	2
100913	11:59	1	r.nurse	55	3006	6
100913	11:59	1	r.inhabitant	56	4612	5
100913	11:59	1	r.lawsuit	57	4298	4
100913	11:59	1	r.discomfort	58	1844	4
100913	11:59	1	r.sphere	59	2792	6
100913	11:59	1	r.hydrant	60	3358	5
100913	11:59	1	f.kleeb	1	5142	3
100913	11:59	1	f.drathe	2	2479	2
100913	11:59	1	f.grogue	3	962	2
100913	11:59	1	f.spove	4	1440	4
100913	11:59	1	f.kwade	5	1892	3
100913	11:59	1	f.throob	6	1303	4
100913	11:59	1	f.fleeth	7	1080	5
100913	11:59	1	f.moshe	8	2090	5
100913	11:59	1	f.grooge	9	1333	2
100913	11:59	1	f.trooch	10	1172	4
100913	11:59	1	f.gwashe	11	1235	2
100913	11:59	1	f.drore	12	1855	2
100913	11:59	1	f.sneesh	13	1099	3
100913	11:59	1	f.gwoof	14	988	2
100913	11:59	1	f.sloosh	15	986	3
100913	11:59	1	f.shague	16	1192	4
100913	11:59	1	f.soog	17	870	4
100913	11:59	1	f.soosh	18	897	4
100913	11:59	1	f.gweeb	19	1321	2
100913	11:59	1	f.freeg	20	1451	5
100913	11:59	1	f.smood	21	1014	5
100913	11:59	1	f.gwode	22	1155	2
100913	11:59	1	f.grare	23	1146	2
100913	11:59	1	f.sweese	24	1034	5
100913	11:59	1	f.koog	25	2278	4
100913	11:59	1	f.troob	26	1728	4
100913	11:59	1	f.dwoop	27	1480	2
100913	11:59	1	f.thogue	28	2027	5
100913	11:59	1	f.yobe	29	1359	6
100913	11:59	1	f.yame	30	1894	5
100913	11:59	1	f.zooch	31	1104	4
100913	11:59	1	f.skoove	32	1137	5
100913	11:59	1	f.zooge	33	2378	3
100913	11:59	1	f.greege	34	2104	2
100913	11:59	1	f.bashe	35	2737	3
100913	11:59	1	f.tweep	36	1954	5
100913	11:59	1	f.skeeg	37	1074	4
100913	11:59	1	f.gwofe	38	1228	2
100913	11:59	1	f.krashe	39	928	4
100913	11:59	1	f.vashe	40	1048	5
100913	11:59	1	f.keeb	41	996	5
100913	11:59	1	f.swole	42	881	4
100913	11:59	1	f.feeb	43	1331	4
100913	11:59	1	f.sloge	44	1067	4
100913	11:59	1	f.threesh	45	1638	5
100913	11:59	1	f.voke	46	1250	2
100913	11:59	1	f.kwoge	47	1333	2
100913	11:59	1	f.theeb	48	1262	4
100913	11:59	1	f.zoof	49	1760	5
100913	11:59	1	f.dathe	50	1375	2
100913	11:59	1	f.thooth	51	934	5
100913	11:59	1	f.shrave	52	1038	4
100913	11:59	1	f.glague	53	1202	2
100913	11:59	1	f.pame	54	3143	4
100913	11:59	1	f.stabe	55	2663	4
100913	11:59	1	f.twoove	56	1395	5
100913	11:59	1	f.gwaze	57	776	2
100913	11:59	1	f.yave	58	1150	4
100913	11:59	1	f.dreeth	59	734	2
100913	11:59	1	f.slase	60	1022	2
100913	11:59	1	howtype	1	8793	4
100913	13:36	1	speed	1	7185	46
100913	13:36	1	error	2	3773	100
100913	13:36	1	whichhand	3	9356	Right
100913	13:36	1	r.useless	1	15093	1
100913	13:36	1	r.tomb	2	13659	3
100913	13:36	1	r.cannon	3	8394	5
100913	13:36	1	r.putrid	4	16833	2
100913	13:36	1	r.toothache	5	12522	1
100913	13:36	1	r.lantern	6	9278	8
100913	13:36	1	r.frigid	7	13482	4
100913	13:36	1	r.rattle	8	10080	4
100913	13:36	1	r.win	9	13837	7
100913	13:36	1	r.thermometer	10	19116	5
100913	13:36	1	r.man	11	7004	5
100913	13:36	1	r.adorable	12	6339	9
100913	13:36	1	r.mischief	13	17740	7
100913	13:36	1	r.blister	14	3626	3
100913	13:36	1	r.intercourse	15	4535	9
100913	13:36	1	r.ace	16	15727	6
100913	13:36	1	r.stagnant	17	5492	3
100913	13:36	1	r.brave	18	17478	7
100913	13:36	1	r.scholar	19	4246	6
100913	13:36	1	r.deceit	20	14866	2
100913	13:36	1	r.bouquet	21	3769	9
100913	13:36	1	r.cold	22	7601	6
100913	13:36	1	r.dirt	23	19392	5
100913	13:36	1	r.friend	24	7524	8
100913	13:36	1	r.neglect	25	4670	1
100913	13:36	1	r.jealousy	26	7706	1
100913	13:36	1	r.orgasm	27	2958	9
100913	13:36	1	r.nasty	28	12053	1
100913	13:36	1	r.rude	29	13316	3
100913	13:36	1	r.broken	30	22312	5
100913	13:36	1	r.stool	31	14160	5
100913	13:36	1	r.burial	32	19291	3
100913	13:36	1	r.sickness	33	13370	2
100913	13:36	1	r.failure	34	6829	5
100913	13:36	1	r.blubber	35	16418	3
100913	13:36	1	r.pus	36	2421	1
100913	13:36	1	r.lightbulb	37	6441	6
100913	13:36	1	r.helpless	38	5951	2
100913	13:36	1	r.joy	39	2904	9
100913	13:36	1	r.burdened	40	4945	3
100913	13:36	1	r.nipple	41	17857	7
100913	13:36	1	r.tumor	42	1978	1
100913	13:36	1	r.muscular	43	7632	8
100913	13:36	1	r.tree	44	11262	7
100913	13:36	1	r.fur	45	5956	7
100913	13:36	1	r.noose	46	3373	1
100913	13:36	1	r.torture	47	2117	1
100913	13:36	1	r.inspired	48	19165	6
100913	13:36	1	r.priest	49	6074	3
100913	13:36	1	r.crucify	50	5326	3
100913	13:36	1	r.powerful	51	18271	3
100913	13:36	1	r.warmth	52	2647	8
100913	13:36	1	r.passion	53	1963	9
100913	13:36	1	r.upset	54	4858	1
100913	13:36	1	r.dancer	55	2782	9
100913	13:36	1	r.surprised	56	7604	8
100913	13:36	1	r.filth	57	15867	2
100913	13:36	1	r.machine	58	1972	5
100913	13:36	1	r.reunion	59	6410	5
100913	13:36	1	r.arrogant	60	9465	3
100913	13:36	1	f.twoop	1	11253	5
100913	13:36	1	f.kwague	2	7091	5
100913	13:36	1	f.shobe	3	11319	6
100913	13:36	1	f.dothe	4	2891	4
100913	13:36	1	f.floob	5	4925	3
100913	13:36	1	f.kroosh	6	27366	4
100913	13:36	1	f.gwooge	7	5270	5
100913	13:36	1	f.yoon	8	4290	7
100913	13:36	1	f.dwoosh	9	8868	6
100913	13:36	1	f.zeech	10	13521	5
100913	13:36	1	f.zache	11	5503	6
100913	13:36	1	f.dwane	12	5298	4
100913	13:36	1	f.fleege	13	7444	6
100913	13:36	1	f.ploge	14	3785	4
100913	13:36	1	f.deeg	15	4272	3
100913	13:36	1	f.thoosh	16	9156	5
100913	13:36	1	f.skeege	17	4470	5
100913	13:36	1	f.pooth	18	2154	4
100913	13:36	1	f.vove	19	7545	7
100913	13:36	1	f.lole	20	2259	7
100913	13:36	1	f.dweese	21	3071	3
100913	13:36	1	f.glake	22	9450	3
100913	13:36	1	f.smeeb	23	3216	4
100913	13:36	1	f.speesh	24	4253	6
100913	13:36	1	f.kweese	25	7089	7
100913	13:36	1	f.steech	26	2237	5
100913	13:36	1	f.gwache	27	4946	4
100913	13:36	1	f.stoshe	28	4258	5
100913	13:36	1	f.shase	29	23101	5
100913	13:36	1	f.yoche	30	3558	5
100913	13:36	1	f.boove	31	2335	4
100913	13:36	1	f.shreet	32	2047	3
100913	13:36	1	f.snooge	33	1563	3
100913	13:36	1	f.brathe	34	2986	4
100913	13:36	1	f.krofe	35	1504	5
100913	13:36	1	f.zeesh	36	2434	7
100913	13:36	1	f.glafe	37	3310	6
100913	13:36	1	f.bloge	38	3879	6
100913	13:36	1	f.plashe	39	13314	6
100913	13:36	1	f.smave	40	20286	6
100913	13:36	1	f.greeb	41	5478	5
100913	13:36	1	f.thweeve	42	3442	6
100913	13:36	1	f.yave	43	1534	7
100913	13:36	1	f.trage	44	2358	6
100913	13:36	1	f.gwame	45	2238	8
100913	13:36	1	f.twose	46	22905	6
100913	13:36	1	f.spague	47	2690	5
100913	13:36	1	f.smoosh	48	3165	7
100913	13:36	1	f.yase	49	3612	3
100913	13:36	1	f.dwoof	50	3369	5
100913	13:36	1	f.skobe	51	3777	4
100913	13:36	1	f.shreef	52	3600	6
100913	13:36	1	f.skague	53	2798	7
100913	13:36	1	f.threef	54	8123	5
100913	13:36	1	f.groge	55	2239	5
100913	13:36	1	f.sweech	56	19802	5
100913	13:36	1	f.freeb	57	2454	7
100913	13:36	1	f.zabe	58	5090	4
100913	13:36	1	f.bleeg	59	2357	5
100913	13:36	1	f.kreesh	60	2469	3
100913	13:36	1	howtype	1	19015	4
100913	13:59	1	speed	1	4895	42
100913	13:59	1	error	2	2996	100
100913	13:59	1	whichhand	3	7299	right
100913	13:59	1	r.busybody	1	9688	4
100913	13:59	1	r.pain	2	2733	2
100913	13:59	1	r.board	3	2453	2
100913	13:59	1	r.patriot	4	3081	8
100913	13:59	1	r.pest	5	3516	1
100913	13:59	1	r.kettle	6	3157	5
100913	13:59	1	r.indifferent	7	3109	3
100913	13:59	1	r.windmill	8	1750	5
100913	13:59	1	r.hurricane	9	1702	1
100913	13:59	1	r.ambition	10	2360	6
100913	13:59	1	r.deserter	11	2350	5
100913	13:59	1	r.reunion	12	2614	7
100913	13:59	1	r.save	13	3108	8
100913	13:59	1	r.highway	14	2278	4
100913	13:59	1	r.murderer	15	1616	1
100913	13:59	1	r.wish	16	1957	9
100913	13:59	1	r.adventure	17	1220	9
100913	13:59	1	r.humor	18	881	9
100913	13:59	1	r.letter	19	1667	5
100913	13:59	1	r.sailboat	20	1094	5
100913	13:59	1	r.boxer	21	1103	5
100913	13:59	1	r.hay	22	1001	5
100913	13:59	1	r.grime	23	1910	2
100913	13:59	1	r.riot	24	1543	2
100913	13:59	1	r.favor	25	1670	6
100913	13:59	1	r.person	26	1809	8
100913	13:59	1	r.slush	27	1630	3
100913	13:59	1	r.adult	28	1546	5
100913	13:59	1	r.rabbit	29	1202	5
100913	13:59	1	r.flag	30	1143	5
100913	13:59	1	r.flabby	31	2103	2
100913	13:59	1	r.aloof	32	2592	5
100913	13:59	1	r.fatigued	33	1326	3
100913	13:59	1	r.education	34	1559	7
100913	13:59	1	r.spring	35	1398	8
100913	13:59	1	r.hinder	36	1443	3
100913	13:59	1	r.handsome	37	1503	7
100913	13:59	1	r.hawk	38	1872	5
100913	13:59	1	r.lucky	39	1331	8
100913	13:59	1	r.aroused	40	1627	8
100913	13:59	1	r.vest	41	1999	5
100913	13:59	1	r.disgusted	42	1549	1
100913	13:59	1	r.insane	43	1653	2
100913	13:59	1	r.grass	44	1536	5
100913	13:59	1	r.voyage	45	1416	8
100913	13:59	1	r.skijump	46	2101	8
100913	13:59	1	r.odd	47	1439	5
100913	13:59	1	r.priest	48	1667	5
100913	13:59	1	r.penalty	49	2534	3
100913	13:59	1	r.gold	50	1846	8
100913	13:59	1	r.dummy	51	1530	2
100913	13:59	1	r.tool	52	1474	5
100913	13:59	1	r.fireworks	53	1349	8
100913	13:59	1	r.book	54	1092	5
100913	13:59	1	r.cuisine	55	1662	5
100913	13:59	1	r.alley	56	2409	2
100913	13:59	1	r.masturbate	57	2542	1
100913	13:59	1	r.bankrupt	58	1687	1
100913	13:59	1	r.mangle	59	1649	2
100913	13:59	1	r.hooker	60	1797	1
100913	13:59	1	f.throog	1	9395	3
100913	13:59	1	f.klole	2	4484	5
100913	13:59	1	f.ploosh	3	2079	3
100913	13:59	1	f.jafe	4	2721	5
100913	13:59	1	f.swooch	5	3818	6
100913	13:59	1	f.zoof	6	2128	7
100913	13:59	1	f.kogue	7	2296	5
100913	13:59	1	f.feef	8	1474	5
100913	13:59	1	f.fleep	9	5189	5
100913	13:59	1	f.slood	10	1668	4
100913	13:59	1	f.dwoshe	11	2911	1
100913	13:59	1	f.vashe	12	3257	3
100913	13:59	1	f.tove	13	2028	5
100913	13:59	1	f.skeek	14	2737	4
100913	13:59	1	f.pleege	15	3146	7
100913	13:59	1	f.gweeb	16	2362	3
100913	13:59	1	f.dweer	17	3224	5
100913	13:59	1	f.shooch	18	2294	6
100913	13:59	1	f.smeeg	19	1864	4
100913	13:59	1	f.dreese	20	6386	5
100913	13:59	1	f.gwoop	21	3674	6
100913	13:59	1	f.shobe	22	1118	6
100913	13:59	1	f.tweese	23	3718	4
100913	13:59	1	f.nashe	24	2576	3
100913	13:59	1	f.thwague	25	2718	4
100913	13:59	1	f.thooth	26	3576	2
100913	13:59	1	f.broog	27	2919	6
100913	13:59	1	f.noog	28	1920	5
100913	13:59	1	f.glose	29	1673	6
100913	13:59	1	f.klashe	30	4148	4
100913	13:59	1	f.toove	31	4156	4
100913	13:59	1	f.froop	32	1772	6
100913	13:59	1	f.twoog	33	2715	4
100913	13:59	1	f.zogue	34	2364	6
100913	13:59	1	f.kwape	35	1572	6
100913	13:59	1	f.joche	36	3770	5
100913	13:59	1	f.preep	37	2154	7
100913	13:59	1	f.dweep	38	1794	3
100913	13:59	1	f.thwole	39	2023	3
100913	13:59	1	f.sposhe	40	2748	7
100913	13:59	1	f.dwoot	41	3196	7
100913	13:59	1	f.thoshe	42	1530	6
100913	13:59	1	f.spoot	43	2730	5
100913	13:59	1	f.sogue	44	1771	4
100913	13:59	1	f.throge	45	2738	6
100913	13:59	1	f.treem	46	2754	6
100913	13:59	1	f.tweer	47	2322	1
100913	13:59	1	f.gwoosh	48	3771	2
100913	13:59	1	f.twoche	49	2043	2
100913	13:59	1	f.spove	50	2671	6
100913	13:59	1	f.threeve	51	2682	6
100913	13:59	1	f.shroog	52	1620	6
100913	13:59	1	f.gwothe	53	3081	4
100913	13:59	1	f.pame	54	2020	3
100913	13:59	1	f.dreeth	55	2032	4
100913	13:59	1	f.droor	56	2629	6
100913	13:59	1	f.kwoze	57	2674	6
100913	13:59	1	f.snobe	58	3149	3
100913	13:59	1	f.spathe	59	3413	3
100913	13:59	1	f.kague	60	1818	3
100913	13:59	1	howtype	1	13125	2
100913	14:33	1	speed	1	4122	26
100913	14:33	1	error	2	3123	92
100913	14:33	1	whichhand	3	15319	the right hand
100913	14:33	1	r.wine	1	12484	5
100913	14:33	1	r.hay	2	4809	1
100913	14:33	1	r.anger	3	2368	1
100913	14:33	1	r.idiot	4	1799	1
100913	14:33	1	r.column	5	4436	5
100913	14:33	1	r.puppy	6	2417	6
100913	14:33	1	r.detail	7	4870	8
100913	14:33	1	r.honor	8	2234	9
100913	14:33	1	r.concentrate	9	5959	7
100913	14:33	1	r.mother	10	2783	9
100913	14:33	1	r.person	11	2766	8
100913	14:33	1	r.detest	12	5949	5
100913	14:33	1	r.aggressive	13	1598	1
100913	14:33	1	r.morbid	14	3299	1
100913	14:33	1	r.devoted	15	2629	9
100913	14:33	1	r.highway	16	2922	4
100913	14:33	1	r.nectar	17	2603	6
100913	14:33	1	r.penalty	18	1897	1
100913	14:33	1	r.hooker	19	2258	1
100913	14:33	1	r.honey	20	2526	9
100913	14:33	1	r.promotion	21	1807	9
100913	14:33	1	r.sick	22	1956	1
100913	14:33	1	r.tennis	23	3292	5
100913	14:33	1	r.progress	24	6199	9
100913	14:33	1	r.vision	25	1654	9
100913	14:33	1	r.tune	26	1961	8
100913	14:33	1	r.pencil	27	2504	5
100913	14:33	1	r.jail	28	1554	1
100913	14:33	1	r.fight	29	8313	1
100913	14:33	1	r.pervert	30	1812	1
100913	14:33	1	r.avalanche	31	2370	1
100913	14:33	1	r.stomach	32	3624	5
100913	14:33	1	r.erotic	33	4486	4
100913	14:33	1	r.umbrella	34	3377	9
100913	14:33	1	r.time	35	3520	9
100913	14:33	1	r.traitor	36	2353	5
100913	14:33	1	r.upset	37	3545	1
100913	14:33	1	r.alive	38	2346	9
100913	14:33	1	r.key	39	5120	7
100913	14:33	1	r.reverent	40	2755	5
100913	14:33	1	r.space	41	4451	9
100913	14:33	1	r.arm	42	1687	9
100913	14:33	1	r.rabbit	43	2153	5
100913	14:33	1	r.wealthy	44	2041	9
100913	14:33	1	r.home	45	1900	9
100913	14:33	1	r.sleep	46	1327	9
100913	14:33	1	r.sour	47	2111	1
100913	14:33	1	r.champ	48	2207	9
100913	14:33	1	r.food	49	1198	9
100913	14:33	1	r.destruction	50	2419	2
100913	14:33	1	r.cash	51	1656	9
100913	14:33	1	r.beggar	52	2436	1
100913	14:33	1	r.lively	53	2705	8
100913	14:33	1	r.accident	54	1442	1
100913	14:33	1	r.idea	55	2878	9
100913	14:33	1	r.needle	56	1793	1
100913	14:33	1	r.ankle	57	2526	9
100913	14:33	1	r.impressed	58	4183	5
100913	14:33	1	r.crown	59	2150	9
100913	14:33	1	r.broken	60	3014	2
100913	14:33	1	f.swoge	1	5240	5
100913	14:33	1	f.smeeth	2	3774	5
100913	14:33	1	f.shooch	3	4381	5
100913	14:33	1	f.dogue	4	2773	5
100913	14:33	1	f.bleeve	5	5452	4
100913	14:33	1	f.smove	6	3729	5
100913	14:33	1	f.twoove	7	2361	5
100913	14:33	1	f.skeek	8	1321	5
100913	14:33	1	f.spoot	9	2945	5
100913	14:33	1	f.bleeth	10	1929	5
100913	14:33	1	f.thoove	11	1210	5
100913	14:33	1	f.gwake	12	1238	5
100913	14:33	1	f.gweef	13	986	5
100913	14:33	1	f.beesh	14	1976	5
100913	14:33	1	f.fogue	15	2399	5
100913	14:33	1	f.thwose	16	2060	5
100913	14:33	1	f.brore	17	2047	4
100913	14:33	1	f.yase	18	1483	4
100913	14:33	1	f.thafe	19	1445	4
100913	14:33	1	f.kweem	20	1193	4
100913	14:33	1	f.floog	21	1158	4
100913	14:33	1	f.kwooch	22	1469	4
100913	14:33	1	f.brare	23	1744	4
100913	14:33	1	f.gwache	24	888	4
100913	14:33	1	f.peeb	25	906	4
100913	14:33	1	f.smeed	26	787	4
100913	14:33	1	f.shoog	27	745	4
100913	14:33	1	f.yame	28	1072	4
100913	14:33	1	f.dweesh	29	819	4
100913	14:33	1	f.proot	30	944	4
100913	14:33	1	f.skathe	31	871	4
100913	14:33	1	f.shrore	32	841	4
100913	14:33	1	f.spoosh	33	957	4
100913	14:33	1	f.twoob	34	933	4
100913	14:33	1	f.dwade	35	781	4
100913	14:33	1	f.gwoose	36	1403	4
100913	14:33	1	f.skove	37	1056	4
100913	14:33	1	f.plope	38	867	4
100913	14:33	1	f.dwame	39	662	4
100913	14:33	1	f.wooch	40	737	4
100913	14:33	1	f.gweeb	41	1633	4
100913	14:33	1	f.thwode	42	2437	4
100913	14:33	1	f.swooch	43	1353	4
100913	14:33	1	f.stafe	44	4880	4
100913	14:33	1	f.gothe	45	1443	4
100913	14:33	1	f.thove	46	1367	4
100913	14:33	1	f.froosh	47	950	4
100913	14:33	1	f.stooth	48	3909	5
100913	14:33	1	f.thwoop	49	855	5
100913	14:33	1	f.bloshe	50	794	5
100913	14:33	1	f.pleesh	51	919	5
100913	14:33	1	f.slogue	52	688	5
100913	14:33	1	f.dwave	53	906	5
100913	14:33	1	f.yeen	54	683	5
100913	14:33	1	f.thweesh	55	813	5
100913	14:33	1	f.flache	56	1426	5
100913	14:33	1	f.blale	57	727	5
100913	14:33	1	f.yave	58	1007	5
100913	14:33	1	f.zoob	59	756	5
100913	14:33	1	f.zoop	60	875	5
100913	14:33	1	howtype	1	9109	4
