date	time	subject	trialcode	trialnum	latency	response
100713	16:24	1	speed	1	2868	59
100713	16:24	1	error	2	1820	89
100713	16:24	1	whichhand	3	5177	right
100713	16:24	1	r.trauma	1	11012	1
100713	16:24	1	r.fungus	2	4108	2
100713	16:24	1	r.people	3	3750	6
100713	16:24	1	r.startled	4	2398	5
100713	16:24	1	r.dove	5	2684	8
100713	16:24	1	r.mad	6	5710	2
100713	16:24	1	r.scandal	7	2832	2
100713	16:24	1	r.kick	8	3765	3
100713	16:24	1	r.vision	9	3452	5
100713	16:24	1	r.dream	10	2569	7
100713	16:24	1	r.timid	11	2656	4
100713	16:24	1	r.toxic	12	2227	1
100713	16:24	1	r.justice	13	2424	4
100713	16:24	1	r.dreary	14	3909	3
100713	16:24	1	r.icebox	15	3918	5
100713	16:24	1	r.skijump	16	4728	7
100713	16:24	1	r.pollute	17	3225	1
100713	16:24	1	r.chin	18	2151	5
100713	16:24	1	r.field	19	2086	8
100713	16:24	1	r.hamburger	20	2305	9
100713	16:24	1	r.cell	21	2738	7
100713	16:24	1	r.abundance	22	3051	4
100713	16:24	1	r.mischief	23	1983	3
100713	16:24	1	r.deserter	24	4102	1
100713	16:24	1	r.kerosene	25	2376	2
100713	16:24	1	r.nectar	26	4279	5
100713	16:24	1	r.chair	27	2186	5
100713	16:24	1	r.sunset	28	2088	9
100713	16:24	1	r.slap	29	2275	1
100713	16:24	1	r.reserved	30	3206	6
100713	16:24	1	r.sentiment	31	2324	8
100713	16:24	1	r.interest	32	2381	9
100713	16:24	1	r.reverent	33	2876	5
100713	16:24	1	r.pest	34	3335	1
100713	16:24	1	r.noisy	35	1920	2
100713	16:24	1	r.thought	36	2232	4
100713	16:24	1	r.watch	37	3333	5
100713	16:24	1	r.present	38	4646	6
100713	16:24	1	r.addicted	39	2506	1
100713	16:24	1	r.key	40	2180	5
100713	16:24	1	r.prison	41	2323	1
100713	16:24	1	r.garden	42	2532	9
100713	16:24	1	r.frog	43	2380	7
100713	16:24	1	r.scared	44	1923	1
100713	16:24	1	r.orgasm	45	3372	9
100713	16:24	1	r.lively	46	3236	8
100713	16:24	1	r.loved	47	1977	9
100713	16:24	1	r.blasphemy	48	2502	2
100713	16:24	1	r.boxer	49	1975	5
100713	16:24	1	r.devil	50	2005	1
100713	16:24	1	r.clumsy	51	3027	3
100713	16:24	1	r.air	52	2224	5
100713	16:24	1	r.brave	53	2053	9
100713	16:24	1	r.trust	54	1849	9
100713	16:24	1	r.rigid	55	2420	5
100713	16:24	1	r.blase	56	3705	5
100713	16:24	1	r.memories	57	2140	9
100713	16:24	1	r.blubber	58	3076	1
100713	16:24	1	r.cut	59	2167	1
100713	16:24	1	r.angry	60	2486	1
100713	16:24	1	f.thweel	1	3553	5
100713	16:24	1	f.vage	2	4217	4
100713	16:24	1	f.thwofe	3	3367	6
100713	16:24	1	f.dweek	4	3023	2
100713	16:24	1	f.shoge	5	2276	2
100713	16:24	1	f.stoshe	6	2590	5
100713	16:24	1	f.dwathe	7	1821	5
100713	16:24	1	f.prope	8	2442	7
100713	16:24	1	f.sneem	9	2414	1
100713	16:24	1	f.smeen	10	2683	1
100713	16:24	1	f.joosh	11	2886	5
100713	16:24	1	f.pleesh	12	5281	7
100713	16:24	1	f.kloche	13	2132	5
100713	16:24	1	f.dreech	14	2005	3
100713	16:24	1	f.woog	15	1730	5
100713	16:24	1	f.gwooch	16	1291	5
100713	16:24	1	f.yeeg	17	1557	5
100713	16:24	1	f.kwoog	18	1900	7
100713	16:24	1	f.zove	19	1518	3
100713	16:24	1	f.glathe	20	1175	5
100713	16:24	1	f.shrase	21	1302	7
100713	16:24	1	f.preeth	22	1535	2
100713	16:24	1	f.kroob	23	1759	5
100713	16:24	1	f.glooge	24	1678	5
100713	16:24	1	f.vabe	25	1777	7
100713	16:24	1	f.thweeze	26	1646	6
100713	16:24	1	f.gooth	27	1187	5
100713	16:24	1	f.snood	28	1425	4
100713	16:24	1	f.fleef	29	1350	5
100713	16:24	1	f.thode	30	1942	3
100713	16:24	1	f.gwade	31	2222	5
100713	16:24	1	f.toove	32	1779	5
100713	16:24	1	f.poog	33	1081	7
100713	16:24	1	f.stoose	34	1524	3
100713	16:24	1	f.skeeg	35	3764	5
100713	16:24	1	f.thwoshe	36	1524	7
100713	16:24	1	f.leech	37	1589	5
100713	16:24	1	f.yooge	38	2475	6
100713	16:24	1	f.slole	39	1647	3
100713	16:24	1	f.sneeg	40	1482	4
100713	16:24	1	f.noof	41	876	8
100713	16:24	1	f.toof	42	1558	5
100713	16:24	1	f.drood	43	1430	6
100713	16:24	1	f.swathe	44	1410	3
100713	16:24	1	f.zeeg	45	863	5
100713	16:24	1	f.prooch	46	3938	5
100713	16:24	1	f.kwooze	47	2275	5
100713	16:24	1	f.steeth	48	1470	7
100713	16:24	1	f.dwave	49	1089	6
100713	16:24	1	f.breeth	50	1443	4
100713	16:24	1	f.prate	51	2500	5
100713	16:24	1	f.yeeb	52	1303	8
100713	16:24	1	f.snoove	53	1200	6
100713	16:24	1	f.thwave	54	1285	7
100713	16:24	1	f.dweeve	55	1240	5
100713	16:24	1	f.teege	56	1388	4
100713	16:24	1	f.yeep	57	913	5
100713	16:24	1	f.thwoom	58	1234	6
100713	16:24	1	f.sleem	59	1414	5
100713	16:24	1	f.thope	60	1492	4
100713	16:24	1	howtype	1	10508	6
100813	09:10	1	speed	1	2863	45
100813	09:10	1	error	2	3100	100
100813	09:10	1	whichhand	3	7414	0
100813	09:10	1	f.joom	1	11115	2
100813	09:10	1	f.shoob	2	4264	1
100813	09:10	1	f.skose	3	3267	4
100813	09:10	1	f.threer	4	2367	3
100813	09:10	1	f.slage	5	2782	8
100813	09:10	1	f.skave	6	2797	5
100813	09:10	1	f.gleef	7	2195	3
100813	09:10	1	f.twooge	8	1769	4
100813	09:10	1	f.voshe	9	1191	3
100813	09:10	1	f.skothe	10	1062	2
100813	09:10	1	f.pleeve	11	2113	8
100813	09:10	1	f.trafe	12	2010	3
100813	09:10	1	f.stoose	13	2679	4
100813	09:10	1	f.thwase	14	2082	5
100813	09:10	1	f.dwate	15	2028	2
100813	09:10	1	f.drood	16	2224	2
100813	09:10	1	f.theeve	17	1637	5
100813	09:10	1	f.seeb	18	1970	1
100813	09:10	1	f.gweech	19	1265	2
100813	09:10	1	f.sweege	20	1308	2
100813	09:10	1	f.slogue	21	1101	3
100813	09:10	1	f.tweef	22	2078	4
100813	09:10	1	f.yeese	23	2273	8
100813	09:10	1	f.pleel	24	1588	3
100813	09:10	1	f.gwague	25	1434	2
100813	09:10	1	f.cheeth	26	2231	8
100813	09:10	1	f.deef	27	7627	8
100813	09:10	1	f.krabe	28	1281	3
100813	09:10	1	f.flooth	29	1764	2
100813	09:10	1	f.yome	30	1339	3
100813	09:10	1	f.speesh	31	1163	2
100813	09:10	1	f.shroge	32	1186	4
100813	09:10	1	f.thwade	33	1320	3
100813	09:10	1	f.peeb	34	4512	2
100813	09:10	1	f.freeve	35	1403	2
100813	09:10	1	f.peesh	36	1768	2
100813	09:10	1	f.spobe	37	1223	2
100813	09:10	1	f.thwate	38	2588	3
100813	09:10	1	f.gloche	39	1490	5
100813	09:10	1	f.kloop	40	1709	2
100813	09:10	1	f.klape	41	1110	2
100813	09:10	1	f.prape	42	1079	2
100813	09:10	1	f.kweese	43	1049	2
100813	09:10	1	f.thate	44	1308	3
100813	09:10	1	f.vode	45	1102	3
100813	09:10	1	f.pleek	46	1431	6
100813	09:10	1	f.kwape	47	1292	3
100813	09:10	1	f.spathe	48	910	3
100813	09:10	1	f.nooch	49	1150	2
100813	09:10	1	f.sneef	50	1278	3
100813	09:10	1	f.blogue	51	4536	7
100813	09:10	1	f.gwove	52	2441	3
100813	09:10	1	f.smathe	53	1438	2
100813	09:10	1	f.breeg	54	1050	3
100813	09:10	1	f.dwane	55	1293	2
100813	09:10	1	f.brooth	56	4999	9
100813	09:10	1	f.troof	57	1630	5
100813	09:10	1	f.jogue	58	1386	5
100813	09:10	1	f.gweeg	59	1184	2
100813	09:10	1	f.shogue	60	1286	3
100813	09:10	1	r.morgue	1	2755	2
100813	09:10	1	r.wife	2	3188	5
100813	09:10	1	r.knot	3	3035	5
100813	09:10	1	r.promotion	4	2391	9
100813	09:10	1	r.part	5	6221	6
100813	09:10	1	r.trauma	6	3164	1
100813	09:10	1	r.easy	7	4076	5
100813	09:10	1	r.golfer	8	2871	6
100813	09:10	1	r.confident	9	3250	7
100813	09:10	1	r.severe	10	4094	1
100813	09:10	1	r.flag	11	2321	5
100813	09:10	1	r.thrill	12	3682	3
100813	09:10	1	r.street	13	2821	5
100813	09:10	1	r.cannon	14	2218	3
100813	09:10	1	r.valentine	15	2823	8
100813	09:10	1	r.sweetheart	16	1989	9
100813	09:10	1	r.devoted	17	1899	9
100813	09:10	1	r.insect	18	2069	3
100813	09:10	1	r.pig	19	1127	3
100813	09:10	1	r.burdened	20	1120	2
100813	09:10	1	r.assault	21	1249	1
100813	09:10	1	r.nude	22	1844	2
100813	09:10	1	r.embarrassed	23	1487	2
100813	09:10	1	r.politeness	24	1834	9
100813	09:10	1	r.disgusted	25	4167	3
100813	09:10	1	r.useless	26	3238	1
100813	09:10	1	r.delayed	27	2891	2
100813	09:10	1	r.fight	28	1758	1
100813	09:10	1	r.taxi	29	1998	3
100813	09:10	1	r.habit	30	2035	1
100813	09:10	1	r.easygoing	31	2040	9
100813	09:10	1	r.thoughtful	32	1546	9
100813	09:10	1	r.manure	33	1708	2
100813	09:10	1	r.hawk	34	1469	2
100813	09:10	1	r.warmth	35	1672	9
100813	09:10	1	r.shamed	36	1179	2
100813	09:10	1	r.hairdryer	37	3201	5
100813	09:10	1	r.dancer	38	3111	6
100813	09:10	1	r.river	39	2065	4
100813	09:10	1	r.nightmare	40	4108	1
100813	09:10	1	r.memories	41	2511	8
100813	09:10	1	r.chocolate	42	2528	9
100813	09:10	1	r.impair	43	1744	1
100813	09:10	1	r.bus	44	3896	6
100813	09:10	1	r.controlling	45	2058	1
100813	09:10	1	r.prick	46	2254	1
100813	09:10	1	r.rifle	47	1058	1
100813	09:10	1	r.menace	48	1085	1
100813	09:10	1	r.win	49	1815	9
100813	09:10	1	r.curious	50	3172	8
100813	09:10	1	r.stink	51	1492	1
100813	09:10	1	r.chance	52	4470	6
100813	09:10	1	r.indifferent	53	6538	5
100813	09:10	1	r.reverent	54	6108	4
100813	09:10	1	r.plain	55	2358	3
100813	09:10	1	r.save	56	2102	8
100813	09:10	1	r.person	57	2320	6
100813	09:10	1	r.headlight	58	2033	6
100813	09:10	1	r.betray	59	1310	2
100813	09:10	1	r.egg	60	2407	5
100813	09:10	1	howtype	1	46314	5
100813	09:47	1	speed	1	4410	46
100813	09:47	1	error	2	1627	97
100813	09:47	1	whichhand	3	8662	left
100813	09:47	1	f.brore	1	9603	4
100813	09:47	1	f.sweem	2	5051	6
100813	09:47	1	f.veeb	3	3889	5
100813	09:47	1	f.gwoob	4	3244	7
100813	09:47	1	f.thwoge	5	4128	5
100813	09:47	1	f.gweeth	6	2953	5
100813	09:47	1	f.smoshe	7	5097	3
100813	09:47	1	f.shage	8	5644	6
100813	09:47	1	f.krothe	9	2560	5
100813	09:47	1	f.voke	10	3888	5
100813	09:47	1	f.tafe	11	3291	5
100813	09:47	1	f.zoove	12	2093	7
100813	09:47	1	f.snothe	13	3968	7
100813	09:47	1	f.glooth	14	2135	5
100813	09:47	1	f.drode	15	7536	5
100813	09:47	1	f.skooth	16	2266	5
100813	09:47	1	f.seesh	17	3029	4
100813	09:47	1	f.greesh	18	3338	4
100813	09:47	1	f.dwoshe	19	1931	5
100813	09:47	1	f.meeth	20	1891	5
100813	09:47	1	f.kleed	21	2446	4
100813	09:47	1	f.trage	22	3034	3
100813	09:47	1	f.thoog	23	1910	5
100813	09:47	1	f.teeve	24	2191	5
100813	09:47	1	f.veek	25	2326	5
100813	09:47	1	f.teef	26	1726	5
100813	09:47	1	f.doob	27	1663	5
100813	09:47	1	f.veem	28	1930	5
100813	09:47	1	f.dofe	29	2730	4
100813	09:47	1	f.nage	30	2179	4
100813	09:47	1	f.smame	31	1553	5
100813	09:47	1	f.jafe	32	1945	5
100813	09:47	1	f.preet	33	1384	5
100813	09:47	1	f.droog	34	1847	4
100813	09:47	1	f.treef	35	2490	6
100813	09:47	1	f.pleel	36	2205	4
100813	09:47	1	f.deef	37	1363	5
100813	09:47	1	f.slage	38	2802	4
100813	09:47	1	f.skoob	39	1623	5
100813	09:47	1	f.frache	40	2229	5
100813	09:47	1	f.thave	41	1512	5
100813	09:47	1	f.gleese	42	3426	6
100813	09:47	1	f.jogue	43	1942	5
100813	09:47	1	f.blogue	44	2551	6
100813	09:47	1	f.beesh	45	3423	5
100813	09:47	1	f.leech	46	2876	2
100813	09:47	1	f.shrape	47	3279	4
100813	09:47	1	f.dwane	48	2234	5
100813	09:47	1	f.krathe	49	2326	5
100813	09:47	1	f.thweep	50	1863	4
100813	09:47	1	f.fleesh	51	2097	5
100813	09:47	1	f.dweeg	52	1387	5
100813	09:47	1	f.gwoog	53	1682	5
100813	09:47	1	f.dwove	54	2644	5
100813	09:47	1	f.pleege	55	2208	5
100813	09:47	1	f.twale	56	1214	5
100813	09:47	1	f.skeese	57	1506	5
100813	09:47	1	f.thrage	58	1740	5
100813	09:47	1	f.nooge	59	3100	5
100813	09:47	1	f.speeb	60	2239	5
100813	09:47	1	r.nervous	1	4246	3
100813	09:47	1	r.decorate	2	2722	9
100813	09:47	1	r.toxic	3	2116	1
100813	09:47	1	r.pillow	4	2380	8
100813	09:47	1	r.loser	5	1932	1
100813	09:47	1	r.hooker	6	1836	1
100813	09:47	1	r.skijump	7	2216	2
100813	09:47	1	r.alive	8	1789	9
100813	09:47	1	r.treasure	9	2660	8
100813	09:47	1	r.shotgun	10	1943	7
100813	09:47	1	r.tornado	11	2375	1
100813	09:47	1	r.stench	12	1822	3
100813	09:47	1	r.dove	13	1827	8
100813	09:47	1	r.aggressive	14	3022	3
100813	09:47	1	r.plant	15	2421	7
100813	09:47	1	r.naked	16	1818	2
100813	09:47	1	r.bomb	17	1879	1
100813	09:47	1	r.cellar	18	2297	4
100813	09:47	1	r.humane	19	1923	8
100813	09:47	1	r.insecure	20	1916	3
100813	09:47	1	r.ache	21	3437	1
100813	09:47	1	r.foot	22	1938	5
100813	09:47	1	r.trumpet	23	1634	5
100813	09:47	1	r.ship	24	1639	5
100813	09:47	1	r.poverty	25	1715	1
100813	09:47	1	r.subdued	26	2068	5
100813	09:47	1	r.masturbate	27	2511	1
100813	09:47	1	r.mobility	28	2672	5
100813	09:47	1	r.blister	29	1964	2
100813	09:47	1	r.mutilate	30	3163	1
100813	09:47	1	r.social	31	2289	6
100813	09:47	1	r.dream	32	2413	6
100813	09:47	1	r.nourish	33	4026	6
100813	09:47	1	r.reunion	34	2263	6
100813	09:47	1	r.bath	35	1970	7
100813	09:47	1	r.blond	36	1873	7
100813	09:47	1	r.agreement	37	2836	5
100813	09:47	1	r.kitten	38	1625	9
100813	09:47	1	r.deserter	39	2589	2
100813	09:47	1	r.infatuation	40	2459	6
100813	09:47	1	r.lighthouse	41	1783	5
100813	09:47	1	r.liberty	42	2326	6
100813	09:47	1	r.dump	43	1687	4
100813	09:47	1	r.surgery	44	1585	5
100813	09:47	1	r.dummy	45	2247	2
100813	09:47	1	r.promotion	46	2291	9
100813	09:47	1	r.divorce	47	2549	1
100813	09:47	1	r.modest	48	1677	5
100813	09:47	1	r.malice	49	1216	5
100813	09:47	1	r.hit	50	2700	3
100813	09:47	1	r.bored	51	2094	3
100813	09:47	1	r.ecstasy	52	2560	5
100813	09:47	1	r.clumsy	53	1991	4
100813	09:47	1	r.umbrella	54	1558	5
100813	09:47	1	r.cruel	55	3157	2
100813	09:47	1	r.kerosene	56	2462	5
100813	09:47	1	r.alimony	57	3297	3
100813	09:47	1	r.bold	58	3235	6
100813	09:47	1	r.shy	59	1872	4
100813	09:47	1	r.chaos	60	2323	2
100813	09:47	1	howtype	1	8267	4
100813	11:00	1	speed	1	3277	36
100813	11:00	1	error	2	1932	97
100813	11:00	1	whichhand	3	11117	right
100813	11:00	1	f.veep	1	15760	4
100813	11:00	1	f.smole	2	3564	5
100813	11:00	1	f.wathe	3	2348	4
100813	11:00	1	f.drofe	4	2629	6
100813	11:00	1	f.sposhe	5	2480	6
100813	11:00	1	f.chathe	6	3435	5
100813	11:00	1	f.proke	7	2480	5
100813	11:00	1	f.thague	8	1506	5
100813	11:00	1	f.yase	9	3372	4
100813	11:00	1	f.meeb	10	2356	5
100813	11:00	1	f.froob	11	955	5
100813	11:00	1	f.spabe	12	1611	5
100813	11:00	1	f.shrobe	13	1336	6
100813	11:00	1	f.joof	14	1304	5
100813	11:00	1	f.smoof	15	1689	5
100813	11:00	1	f.snabe	16	1035	5
100813	11:00	1	f.swame	17	1471	5
100813	11:00	1	f.voom	18	3338	6
100813	11:00	1	f.throoth	19	5555	4
100813	11:00	1	f.thwake	20	1796	4
100813	11:00	1	f.drabe	21	1066	5
100813	11:00	1	f.bloog	22	813	5
100813	11:00	1	f.groor	23	1042	5
100813	11:00	1	f.proshe	24	894	5
100813	11:00	1	f.snothe	25	1791	5
100813	11:00	1	f.zothe	26	2461	6
100813	11:00	1	f.prathe	27	1696	6
100813	11:00	1	f.gwogue	28	1418	5
100813	11:00	1	f.smothe	29	1151	5
100813	11:00	1	f.dweef	30	1807	5
100813	11:00	1	f.gwoshe	31	972	5
100813	11:00	1	f.preeth	32	1067	5
100813	11:00	1	f.twoof	33	1430	5
100813	11:00	1	f.thweeve	34	2730	4
100813	11:00	1	f.gwaze	35	3770	9
100813	11:00	1	f.vope	36	4674	3
100813	11:00	1	f.dwame	37	1710	3
100813	11:00	1	f.sneef	38	1447	3
100813	11:00	1	f.groge	39	1339	3
100813	11:00	1	f.swoche	40	2587	3
100813	11:00	1	f.tague	41	1601	5
100813	11:00	1	f.jeeb	42	2183	5
100813	11:00	1	f.gwooze	43	2941	2
100813	11:00	1	f.seeb	44	2149	2
100813	11:00	1	f.kwose	45	1110	2
100813	11:00	1	f.flabe	46	2327	3
100813	11:00	1	f.swafe	47	1767	3
100813	11:00	1	f.snoove	48	6078	5
100813	11:00	1	f.throok	49	3786	4
100813	11:00	1	f.skague	50	1537	4
100813	11:00	1	f.floof	51	969	4
100813	11:00	1	f.gweel	52	920	4
100813	11:00	1	f.glale	53	856	4
100813	11:00	1	f.thwode	54	1107	4
100813	11:00	1	f.throfe	55	1350	4
100813	11:00	1	f.dwogue	56	2805	5
100813	11:00	1	f.skoove	57	1307	3
100813	11:00	1	f.cheel	58	1020	3
100813	11:00	1	f.threege	59	1865	2
100813	11:00	1	f.smashe	60	1228	2
100813	11:00	1	r.money	1	4834	8
100813	11:00	1	r.bored	2	2751	5
100813	11:00	1	r.brave	3	4279	9
100813	11:00	1	r.prison	4	4291	4
100813	11:00	1	r.glamour	5	2684	6
100813	11:00	1	r.red	6	2128	8
100813	11:00	1	r.bereavement	7	2776	5
100813	11:00	1	r.lively	8	1543	6
100813	11:00	1	r.ambulance	9	1910	5
100813	11:00	1	r.sexy	10	2655	6
100813	11:00	1	r.abundance	11	2763	7
100813	11:00	1	r.whistle	12	2883	5
100813	11:00	1	r.bowl	13	7485	5
100813	11:00	1	r.birthday	14	1506	8
100813	11:00	1	r.improve	15	1755	6
100813	11:00	1	r.sunlight	16	3251	8
100813	11:00	1	r.runner	17	2103	6
100813	11:00	1	r.safe	18	2353	6
100813	11:00	1	r.ketchup	19	2105	6
100813	11:00	1	r.infant	20	4634	7
100813	11:00	1	r.sweetheart	21	1584	8
100813	11:00	1	r.moment	22	1982	7
100813	11:00	1	r.idol	23	2269	6
100813	11:00	1	r.insecure	24	2432	7
100813	11:00	1	r.people	25	1813	6
100813	11:00	1	r.natural	26	2057	7
100813	11:00	1	r.flood	27	2365	7
100813	11:00	1	r.shy	28	2731	8
100813	11:00	1	r.mildew	29	2845	7
100813	11:00	1	r.mind	30	3105	8
100813	11:00	1	r.phase	31	1963	7
100813	11:00	1	r.bottle	32	1522	7
100813	11:00	1	r.success	33	3699	8
100813	11:00	1	r.meek	34	2685	6
100813	11:00	1	r.saint	35	2336	6
100813	11:00	1	r.madman	36	2112	7
100813	11:00	1	r.magical	37	1961	6
100813	11:00	1	r.street	38	3416	4
100813	11:00	1	r.pillow	39	2510	4
100813	11:00	1	r.starving	40	4351	3
100813	11:00	1	r.bold	41	2416	6
100813	11:00	1	r.sleep	42	2549	5
100813	11:00	1	r.burn	43	2245	4
100813	11:00	1	r.dollar	44	4801	8
100813	11:00	1	r.soothe	45	2736	7
100813	11:00	1	r.sheltered	46	1951	7
100813	11:00	1	r.employment	47	1648	7
100813	11:00	1	r.farm	48	1636	8
100813	11:00	1	r.name	49	1984	9
100813	11:00	1	r.easygoing	50	2798	6
100813	11:00	1	r.cellar	51	2356	5
100813	11:00	1	r.measles	52	2348	6
100813	11:00	1	r.punishment	53	2500	4
100813	11:00	1	r.fame	54	2766	5
100813	11:00	1	r.nightmare	55	6221	3
100813	11:00	1	r.whore	56	5252	3
100813	11:00	1	r.city	57	2641	5
100813	11:00	1	r.vest	58	1949	5
100813	11:00	1	r.decompose	59	2589	2
100813	11:00	1	r.rock	60	2660	2
100813	11:00	1	howtype	1	5926	3
100813	12:56	1	speed	1	3508	61
100813	12:56	1	error	2	1801	96
100813	12:56	1	whichhand	3	7016	right
100813	12:56	1	f.blole	1	8323	2
100813	12:56	1	f.vage	2	2471	4
100813	12:56	1	f.jabe	3	2713	6
100813	12:56	1	f.shroor	4	4722	3
100813	12:56	1	f.swose	5	2860	5
100813	12:56	1	f.dweel	6	3535	6
100813	12:56	1	f.dweeve	7	1737	5
100813	12:56	1	f.bleef	8	2001	7
100813	12:56	1	f.dweek	9	1199	6
100813	12:56	1	f.thwoche	10	1580	3
100813	12:56	1	f.keeg	11	1634	2
100813	12:56	1	f.sposhe	12	2878	4
100813	12:56	1	f.smeep	13	5640	5
100813	12:56	1	f.mabe	14	2581	8
100813	12:56	1	f.thathe	15	1829	4
100813	12:56	1	f.foob	16	1737	7
100813	12:56	1	f.bashe	17	1866	6
100813	12:56	1	f.shrool	18	1517	4
100813	12:56	1	f.yeet	19	1462	3
100813	12:56	1	f.twope	20	1888	2
100813	12:56	1	f.treech	21	2186	6
100813	12:56	1	f.peeb	22	1513	5
100813	12:56	1	f.yave	23	1802	6
100813	12:56	1	f.noosh	24	1696	7
100813	12:56	1	f.chale	25	2857	6
100813	12:56	1	f.kleeg	26	1462	3
100813	12:56	1	f.skabe	27	1840	3
100813	12:56	1	f.stache	28	4852	9
100813	12:56	1	f.brape	29	2025	7
100813	12:56	1	f.snafe	30	2214	6
100813	12:56	1	f.jothe	31	2203	1
100813	12:56	1	f.zeeve	32	2065	5
100813	12:56	1	f.gwoof	33	2061	6
100813	12:56	1	f.thooch	34	2840	7
100813	12:56	1	f.prate	35	1909	6
100813	12:56	1	f.pathe	36	1742	8
100813	12:56	1	f.dwoge	37	1950	4
100813	12:56	1	f.pleel	38	1238	3
100813	12:56	1	f.smave	39	1930	6
100813	12:56	1	f.jate	40	1642	6
100813	12:56	1	f.skake	41	3134	5
100813	12:56	1	f.throog	42	1767	2
100813	12:56	1	f.kweeg	43	6422	4
100813	12:56	1	f.kweese	44	3852	4
100813	12:56	1	f.dweesh	45	3008	5
100813	12:56	1	f.brathe	46	2190	8
100813	12:56	1	f.threech	47	1677	8
100813	12:56	1	f.spome	48	1495	2
100813	12:56	1	f.cheeth	49	3121	7
100813	12:56	1	f.thwone	50	2202	4
100813	12:56	1	f.throfe	51	1479	2
100813	12:56	1	f.theek	52	1994	5
100813	12:56	1	f.throve	53	1792	9
100813	12:56	1	f.smague	54	2046	8
100813	12:56	1	f.dweeg	55	3442	4
100813	12:56	1	f.boosh	56	1911	6
100813	12:56	1	f.twoche	57	1592	3
100813	12:56	1	f.plache	58	1758	7
100813	12:56	1	f.theed	59	3597	5
100813	12:56	1	f.voke	60	2020	5
100813	12:56	1	r.morbid	1	5573	3
100813	12:56	1	r.divorce	2	3293	1
100813	12:56	1	r.pig	3	2759	4
100813	12:56	1	r.earth	4	2014	8
100813	12:56	1	r.quarrel	5	2411	4
100813	12:56	1	r.rescue	6	2384	9
100813	12:56	1	r.column	7	2624	5
100813	12:56	1	r.misery	8	1412	1
100813	12:56	1	r.nectar	9	2650	6
100813	12:56	1	r.respectful	10	1542	7
100813	12:56	1	r.contents	11	1766	5
100813	12:56	1	r.handicap	12	1755	3
100813	12:56	1	r.truck	13	1956	5
100813	12:56	1	r.clock	14	1787	6
100813	12:56	1	r.sun	15	1339	7
100813	12:56	1	r.avenue	16	2410	5
100813	12:56	1	r.troubled	17	1415	3
100813	12:56	1	r.prestige	18	3549	6
100813	12:56	1	r.terrific	19	3277	9
100813	12:56	1	r.swift	20	1456	7
100813	12:56	1	r.disappoint	21	1931	4
100813	12:56	1	r.immoral	22	2916	3
100813	12:56	1	r.stink	23	1821	2
100813	12:56	1	r.favor	24	2361	7
100813	12:56	1	r.errand	25	1529	6
100813	12:56	1	r.boy	26	6025	7
100813	12:56	1	r.heaven	27	1839	9
100813	12:56	1	r.pinch	28	1900	3
100813	12:56	1	r.fork	29	1582	5
100813	12:56	1	r.house	30	3060	6
100813	12:56	1	r.pet	31	2078	8
100813	12:56	1	r.magical	32	1426	9
100813	12:56	1	r.tennis	33	1743	7
100813	12:56	1	r.disgusted	34	2029	1
100813	12:56	1	r.rancid	35	1906	1
100813	12:56	1	r.barrel	36	3252	5
100813	12:56	1	r.easygoing	37	1584	6
100813	12:56	1	r.betray	38	1687	2
100813	12:56	1	r.humiliate	39	1545	2
100813	12:56	1	r.slaughter	40	1640	1
100813	12:56	1	r.highway	41	1685	5
100813	12:56	1	r.vision	42	1639	6
100813	12:56	1	r.abuse	43	1530	1
100813	12:56	1	r.seasick	44	1811	2
100813	12:56	1	r.ugly	45	1296	2
100813	12:56	1	r.fame	46	2770	6
100813	12:56	1	r.manner	47	1609	6
100813	12:56	1	r.fraud	48	1782	4
100813	12:56	1	r.boxer	49	1684	5
100813	12:56	1	r.punishment	50	1951	2
100813	12:56	1	r.handsome	51	1735	8
100813	12:56	1	r.champion	52	1358	9
100813	12:56	1	r.paradise	53	2310	7
100813	12:56	1	r.profit	54	2095	7
100813	12:56	1	r.trash	55	2585	4
100813	12:56	1	r.solemn	56	2168	5
100813	12:56	1	r.part	57	3478	5
100813	12:56	1	r.cannon	58	1114	6
100813	12:56	1	r.spring	59	1562	7
100813	12:56	1	r.mighty	60	1945	9
100813	12:56	1	howtype	1	16943	6
100813	13:31	1	speed	1	3179	44
100813	13:31	1	error	2	2093	100
100813	13:31	1	whichhand	3	8128	Right
100813	13:31	1	r.gangrene	1	8764	1
100813	13:31	1	r.silk	2	2740	9
100813	13:31	1	r.destroy	3	3158	1
100813	13:31	1	r.despairing	4	5910	4
100813	13:31	1	r.skijump	5	3193	7
100813	13:31	1	r.bathtub	6	2391	8
100813	13:31	1	r.rat	7	2206	2
100813	13:31	1	r.market	8	2275	7
100813	13:31	1	r.dirty	9	2142	2
100813	13:31	1	r.jealousy	10	1958	3
100813	13:31	1	r.laughter	11	2933	9
100813	13:31	1	r.bunny	12	4175	9
100813	13:31	1	r.lantern	13	2927	5
100813	13:31	1	r.crude	14	2015	2
100813	13:31	1	r.lightning	15	1716	6
100813	13:31	1	r.hatred	16	1573	1
100813	13:31	1	r.storm	17	1428	2
100813	13:31	1	r.crucify	18	1825	2
100813	13:31	1	r.burn	19	1997	3
100813	13:31	1	r.bathroom	20	2979	5
100813	13:31	1	r.dream	21	1658	9
100813	13:31	1	r.war	22	3486	2
100813	13:31	1	r.cellar	23	2552	3
100813	13:31	1	r.foot	24	1776	5
100813	13:31	1	r.allergy	25	1655	2
100813	13:31	1	r.priest	26	2339	1
100813	13:31	1	r.museum	27	2819	5
100813	13:31	1	r.fire	28	2056	3
100813	13:31	1	r.depression	29	1844	1
100813	13:31	1	r.flag	30	1968	5
100813	13:31	1	r.busybody	31	2151	4
100813	13:31	1	r.fabric	32	2142	7
100813	13:31	1	r.beverage	33	2150	9
100813	13:31	1	r.scorching	34	1630	1
100813	13:31	1	r.hide	35	4090	5
100813	13:31	1	r.mind	36	2166	8
100813	13:31	1	r.lavish	37	1708	9
100813	13:31	1	r.garbage	38	3966	3
100813	13:31	1	r.aloof	39	2942	5
100813	13:31	1	r.carefree	40	1839	9
100813	13:31	1	r.gold	41	1979	8
100813	13:31	1	r.enjoyment	42	1482	9
100813	13:31	1	r.farm	43	2324	3
100813	13:31	1	r.bless	44	2789	7
100813	13:31	1	r.inspire	45	1427	9
100813	13:31	1	r.diamond	46	1192	8
100813	13:31	1	r.hardship	47	1654	2
100813	13:31	1	r.milk	48	1538	5
100813	13:31	1	r.lie	49	1538	2
100813	13:31	1	r.warmth	50	1690	8
100813	13:31	1	r.misery	51	1900	1
100813	13:31	1	r.lawn	52	2198	5
100813	13:31	1	r.quart	53	1748	5
100813	13:31	1	r.person	54	2619	6
100813	13:31	1	r.manner	55	2641	6
100813	13:31	1	r.vehicle	56	1701	9
100813	13:31	1	r.bake	57	1735	8
100813	13:31	1	r.nude	58	3959	5
100813	13:31	1	r.virtue	59	1999	8
100813	13:31	1	r.kitten	60	1445	9
100813	13:31	1	f.brape	1	5274	4
100813	13:31	1	f.plove	2	3038	5
100813	13:31	1	f.kleeb	3	3195	4
100813	13:31	1	f.toof	4	2009	6
100813	13:31	1	f.thrabe	5	2198	6
100813	13:31	1	f.snoshe	6	2116	2
100813	13:31	1	f.swale	7	1733	6
100813	13:31	1	f.proshe	8	1981	7
100813	13:31	1	f.thashe	9	2924	4
100813	13:31	1	f.thooth	10	2421	5
100813	13:31	1	f.bogue	11	3794	2
100813	13:31	1	f.krare	12	3249	4
100813	13:31	1	f.plafe	13	1332	6
100813	13:31	1	f.gwole	14	1524	4
100813	13:31	1	f.trafe	15	2022	8
100813	13:31	1	f.twore	16	2715	2
100813	13:31	1	f.bleef	17	2124	5
100813	13:31	1	f.shrale	18	3405	7
100813	13:31	1	f.snafe	19	2115	3
100813	13:31	1	f.shraze	20	4884	6
100813	13:31	1	f.broop	21	2304	4
100813	13:31	1	f.ploge	22	1842	5
100813	13:31	1	f.blague	23	4870	4
100813	13:31	1	f.kobe	24	1922	7
100813	13:31	1	f.skoosh	25	2355	6
100813	13:31	1	f.blooth	26	2275	4
100813	13:31	1	f.skook	27	1894	6
100813	13:31	1	f.yoosh	28	1544	6
100813	13:31	1	f.voshe	29	2943	4
100813	13:31	1	f.speeg	30	1559	6
100813	13:31	1	f.tweem	31	1782	7
100813	13:31	1	f.poosh	32	2380	4
100813	13:31	1	f.soshe	33	2459	6
100813	13:31	1	f.klode	34	1854	4
100813	13:31	1	f.veef	35	1538	4
100813	13:31	1	f.grague	36	2010	6
100813	13:31	1	f.threed	37	2111	6
100813	13:31	1	f.choom	38	1087	7
100813	13:31	1	f.kleed	39	2033	6
100813	13:31	1	f.twoosh	40	4621	4
100813	13:31	1	f.snobe	41	1491	6
100813	13:31	1	f.vave	42	3126	4
100813	13:31	1	f.blave	43	1998	6
100813	13:31	1	f.shreeth	44	1756	7
100813	13:31	1	f.fope	45	1524	4
100813	13:31	1	f.floge	46	1365	4
100813	13:31	1	f.smoosh	47	2364	7
100813	13:31	1	f.koob	48	2227	8
100813	13:31	1	f.smode	49	1039	4
100813	13:31	1	f.sloshe	50	1659	6
100813	13:31	1	f.smeed	51	1646	6
100813	13:31	1	f.skobe	52	1154	6
100813	13:31	1	f.kloche	53	2593	4
100813	13:31	1	f.dwoon	54	1295	6
100813	13:31	1	f.bloog	55	1481	4
100813	13:31	1	f.plape	56	2331	7
100813	13:31	1	f.floop	57	2531	9
100813	13:31	1	f.throoth	58	5820	4
100813	13:31	1	f.groosh	59	1731	2
100813	13:31	1	f.kwoosh	60	2235	1
100813	13:31	1	howtype	1	5774	4
100813	15:56	1	speed	1	3080	42
100813	15:56	1	error	2	1861	92
100813	15:56	1	whichhand	3	11784	right
100813	15:56	1	r.part	1	33704	5
100813	15:56	1	r.nun	2	13541	7
100813	15:56	1	r.troubled	3	5361	2
100813	15:56	1	r.achievement	4	3817	9
100813	15:56	1	r.tree	5	4318	8
100813	15:56	1	r.FALSE	6	2161	2
100813	15:56	1	r.lump	7	3256	4
100813	15:56	1	r.intruder	8	2068	1
100813	15:56	1	r.louse	9	5351	5
100813	15:56	1	r.hydrant	10	3040	6
100813	15:56	1	r.toxic	11	3189	2
100813	15:56	1	r.frigid	12	4603	3
100813	15:56	1	r.hand	13	4218	5
100813	15:56	1	r.reward	14	2744	9
100813	15:56	1	r.favor	15	3824	8
100813	15:56	1	r.passion	16	3046	8
100813	15:56	1	r.thrill	17	4617	7
100813	15:56	1	r.leisurely	18	8687	6
100813	15:56	1	r.razor	19	2724	4
100813	15:56	1	r.talent	20	2838	9
100813	15:56	1	r.nervous	21	2786	4
100813	15:56	1	r.dead	22	1577	1
100813	15:56	1	r.bright	23	2135	8
100813	15:56	1	r.vampire	24	3456	3
100813	15:56	1	r.woman	25	6940	7
100813	15:56	1	r.thoughtful	26	2118	9
100813	15:56	1	r.bathtub	27	4726	6
100813	15:56	1	r.office	28	11736	5
100813	15:56	1	r.distressed	29	4820	2
100813	15:56	1	r.insecure	30	1706	3
100813	15:56	1	r.consoled	31	2788	5
100813	15:56	1	r.joy	32	1779	9
100813	15:56	1	r.custom	33	6425	7
100813	15:56	1	r.taste	34	4063	5
100813	15:56	1	r.maggot	35	2739	1
100813	15:56	1	r.cabinet	36	4980	5
100813	15:56	1	r.innocent	37	8243	8
100813	15:56	1	r.humiliate	38	3137	2
100813	15:56	1	r.star	39	2842	8
100813	15:56	1	r.diploma	40	3414	8
100813	15:56	1	r.noose	41	2308	2
100813	15:56	1	r.pollute	42	3110	2
100813	15:56	1	r.tragedy	43	2015	1
100813	15:56	1	r.noisy	44	2612	5
100813	15:56	1	r.headache	45	1890	1
100813	15:56	1	r.engaged	46	4268	7
100813	15:56	1	r.gold	47	1576	9
100813	15:56	1	r.penis	48	2390	8
100813	15:56	1	r.useless	49	3509	2
100813	15:56	1	r.seasick	50	2590	1
100813	15:56	1	r.vomit	51	3165	1
100813	15:56	1	r.avenue	52	4348	5
100813	15:56	1	r.identity	53	4189	5
100813	15:56	1	r.pervert	54	3612	3
100813	15:56	1	r.market	55	5969	5
100813	15:56	1	r.loneliness	56	2322	2
100813	15:56	1	r.bland	57	6643	3
100813	15:56	1	r.truck	58	2057	9
100813	15:56	1	r.fish	59	4372	6
100813	15:56	1	r.outdoors	60	1404	9
100813	15:56	1	f.dwooge	1	8735	2
100813	15:56	1	f.dwame	2	3793	3
100813	15:56	1	f.mashe	3	2952	3
100813	15:56	1	f.fleeb	4	3592	4
100813	15:56	1	f.sneed	5	4990	4
100813	15:56	1	f.smeem	6	4718	6
100813	15:56	1	f.gwoze	7	4711	4
100813	15:56	1	f.froop	8	3305	6
100813	15:56	1	f.kweep	9	4852	7
100813	15:56	1	f.loche	10	7073	5
100813	15:56	1	f.kwashe	11	2749	4
100813	15:56	1	f.theel	12	6085	4
100813	15:56	1	f.roshe	13	8401	6
100813	15:56	1	f.krage	14	2929	5
100813	15:56	1	f.twoor	15	2473	3
100813	15:56	1	f.treem	16	1444	4
100813	15:56	1	f.floshe	17	3488	7
100813	15:56	1	f.swoob	18	4131	3
100813	15:56	1	f.brogue	19	3484	7
100813	15:56	1	f.plooth	20	5807	5
100813	15:56	1	f.drage	21	4750	2
100813	15:56	1	f.spoge	22	1583	4
100813	15:56	1	f.troke	23	3901	3
100813	15:56	1	f.snave	24	3199	4
100813	15:56	1	f.cheel	25	4750	2
100813	15:56	1	f.gloge	26	3846	5
100813	15:56	1	f.toog	27	2699	7
100813	15:56	1	f.kwoove	28	5852	8
100813	15:56	1	f.frothe	29	2466	5
100813	15:56	1	f.pleege	30	1813	9
100813	15:56	1	f.swave	31	2466	8
100813	15:56	1	f.shrabe	32	2013	4
100813	15:56	1	f.smode	33	4706	7
100813	15:56	1	f.grare	34	4557	5
100813	15:56	1	f.beeg	35	2638	7
100813	15:56	1	f.voof	36	3082	6
100813	15:56	1	f.koog	37	5437	6
100813	15:56	1	f.threeg	38	8298	6
100813	15:56	1	f.kwoob	39	1574	8
100813	15:56	1	f.jeet	40	1349	5
100813	15:56	1	f.steef	41	1605	7
100813	15:56	1	f.thood	42	3363	4
100813	15:56	1	f.twooge	43	2330	2
100813	15:56	1	f.sleel	44	4267	3
100813	15:56	1	f.blooth	45	1790	5
100813	15:56	1	f.yage	46	1717	4
100813	15:56	1	f.klofe	47	3270	6
100813	15:56	1	f.preem	48	2129	7
100813	15:56	1	f.zoor	49	2138	8
100813	15:56	1	f.sabe	50	3338	6
100813	15:56	1	f.moshe	51	1491	4
100813	15:56	1	f.thrave	52	2125	7
100813	15:56	1	f.smave	53	2974	3
100813	15:56	1	f.tooge	54	1750	8
100813	15:56	1	f.froove	55	1630	4
100813	15:56	1	f.gloche	56	906	6
100813	15:56	1	f.peeth	57	2643	7
100813	15:56	1	f.skoosh	58	1903	5
100813	15:56	1	f.krathe	59	3441	4
100813	15:56	1	f.throre	60	1133	2
100813	15:56	1	howtype	1	14980	6
100813	16:31	1	speed	1	2977	39
100813	16:31	1	error	2	2031	85
100813	16:31	1	whichhand	3	6581	Right
100813	16:31	1	f.zode	1	6245	4
100813	16:31	1	f.wathe	2	3217	4
100813	16:31	1	f.dwooch	3	3535	3
100813	16:31	1	f.flashe	4	3736	4
100813	16:31	1	f.skoove	5	2297	6
100813	16:31	1	f.thofe	6	1651	4
100813	16:31	1	f.smape	7	2423	3
100813	16:31	1	f.jashe	8	1828	6
100813	16:31	1	f.tweep	9	1608	7
100813	16:31	1	f.gwage	10	1814	5
100813	16:31	1	f.smeeb	11	3274	5
100813	16:31	1	f.frofe	12	1998	6
100813	16:31	1	f.sloose	13	2668	6
100813	16:31	1	f.frooth	14	2223	6
100813	16:31	1	f.gloge	15	1548	4
100813	16:31	1	f.gwogue	16	1699	4
100813	16:31	1	f.plafe	17	1421	4
100813	16:31	1	f.proche	18	1570	4
100813	16:31	1	f.spoom	19	2073	6
100813	16:31	1	f.sheege	20	1084	6
100813	16:31	1	f.yobe	21	2550	6
100813	16:31	1	f.shague	22	1174	6
100813	16:31	1	f.drooge	23	1837	7
100813	16:31	1	f.dwood	24	1409	6
100813	16:31	1	f.broosh	25	1926	7
100813	16:31	1	f.gwague	26	2503	4
100813	16:31	1	f.spooge	27	1553	4
100813	16:31	1	f.plave	28	1296	6
100813	16:31	1	f.cheem	29	1050	6
100813	16:31	1	f.yane	30	1061	4
100813	16:31	1	f.froop	31	1080	4
100813	16:31	1	f.gleech	32	1570	6
100813	16:31	1	f.throre	33	969	6
100813	16:31	1	f.shrashe	34	2464	3
100813	16:31	1	f.glole	35	1291	4
100813	16:31	1	f.boshe	36	2045	4
100813	16:31	1	f.chame	37	2633	7
100813	16:31	1	f.skeege	38	1213	6
100813	16:31	1	f.thwooch	39	3978	7
100813	16:31	1	f.dogue	40	1969	4
100813	16:31	1	f.dreech	41	960	4
100813	16:31	1	f.yague	42	1591	3
100813	16:31	1	f.dwale	43	2917	6
100813	16:31	1	f.jeech	44	1167	6
100813	16:31	1	f.snoob	45	1014	6
100813	16:31	1	f.thweed	46	1210	6
100813	16:31	1	f.breeg	47	983	6
100813	16:31	1	f.yape	48	1341	3
100813	16:31	1	f.dwoosh	49	1805	4
100813	16:31	1	f.thwate	50	1011	6
100813	16:31	1	f.freeg	51	1328	4
100813	16:31	1	f.throve	52	944	6
100813	16:31	1	f.noof	53	1087	3
100813	16:31	1	f.skooth	54	2409	6
100813	16:31	1	f.drare	55	1022	6
100813	16:31	1	f.noog	56	1163	6
100813	16:31	1	f.groshe	57	2650	5
100813	16:31	1	f.yoosh	58	1262	6
100813	16:31	1	f.shrole	59	2361	4
100813	16:31	1	f.slore	60	1584	4
100813	16:31	1	r.nurse	1	2295	7
100813	16:31	1	r.noose	2	1977	4
100813	16:31	1	r.ketchup	3	1751	7
100813	16:31	1	r.scornful	4	1783	5
100813	16:31	1	r.favor	5	1782	7
100813	16:31	1	r.sun	6	1476	7
100813	16:31	1	r.eat	7	1710	9
100813	16:31	1	r.freedom	8	1983	9
100813	16:31	1	r.bench	9	2197	4
100813	16:31	1	r.arm	10	2643	7
100813	16:31	1	r.cannon	11	2095	5
100813	16:31	1	r.home	12	1633	8
100813	16:31	1	r.lightning	13	2197	7
100813	16:31	1	r.mountain	14	1395	7
100813	16:31	1	r.happy	15	1673	9
100813	16:31	1	r.street	16	1356	7
100813	16:31	1	r.movie	17	1427	7
100813	16:31	1	r.torture	18	2239	1
100813	16:31	1	r.tomb	19	2268	1
100813	16:31	1	r.massacre	20	2231	1
100813	16:31	1	r.cake	21	1851	8
100813	16:31	1	r.snuggle	22	1711	8
100813	16:31	1	r.alley	23	3008	4
100813	16:31	1	r.fork	24	2158	5
100813	16:31	1	r.habit	25	1470	5
100813	16:31	1	r.tool	26	2657	6
100813	16:31	1	r.fish	27	2621	7
100813	16:31	1	r.cold	28	2026	2
100813	16:31	1	r.stagnant	29	2255	4
100813	16:31	1	r.food	30	1562	9
100813	16:31	1	r.smallpox	31	2889	1
100813	16:31	1	r.volcano	32	2196	5
100813	16:31	1	r.ocean	33	1610	9
100813	16:31	1	r.cork	34	2159	5
100813	16:31	1	r.nun	35	1718	5
100813	16:31	1	r.obey	36	2959	7
100813	16:31	1	r.ache	37	2126	2
100813	16:31	1	r.kiss	38	1942	8
100813	16:31	1	r.foot	39	2142	5
100813	16:31	1	r.injury	40	2910	1
100813	16:31	1	r.truck	41	1967	6
100813	16:31	1	r.chair	42	1767	5
100813	16:31	1	r.beach	43	2606	9
100813	16:31	1	r.swift	44	1779	6
100813	16:31	1	r.flabby	45	2114	3
100813	16:31	1	r.poison	46	2979	1
100813	16:31	1	r.quarrel	47	1658	4
100813	16:31	1	r.people	48	1757	7
100813	16:31	1	r.trash	49	2717	2
100813	16:31	1	r.plain	50	2142	3
100813	16:31	1	r.absurd	51	4006	3
100813	16:31	1	r.color	52	1389	7
100813	16:31	1	r.idol	53	1547	8
100813	16:31	1	r.memory	54	2138	8
100813	16:31	1	r.avenue	55	6643	5
100813	16:31	1	r.addict	56	1592	5
100813	16:31	1	r.air	57	2238	9
100813	16:31	1	r.star	58	1323	8
100813	16:31	1	r.fireworks	59	2524	8
100813	16:31	1	r.consoled	60	1413	5
100813	16:31	1	howtype	1	9552	5
100913	12:32	1	speed	1	4615	43
100913	12:32	1	error	2	2285	65
100913	12:32	1	whichhand	3	6864	right
100913	12:32	1	r.free	1	24653	9
100913	12:32	1	r.sunset	2	3889	8
100913	12:32	1	r.razor	3	3588	2
100913	12:32	1	r.despairing	4	4171	2
100913	12:32	1	r.hatred	5	1162	1
100913	12:32	1	r.infant	6	2537	7
100913	12:32	1	r.barrel	7	3610	5
100913	12:32	1	r.delight	8	2288	9
100913	12:32	1	r.foul	9	2138	3
100913	12:32	1	r.murderer	10	1515	1
100913	12:32	1	r.bouquet	11	2883	8
100913	12:32	1	r.butter	12	1582	7
100913	12:32	1	r.whore	13	1917	1
100913	12:32	1	r.scar	14	2685	3
100913	12:32	1	r.nice	15	2712	6
100913	12:32	1	r.seasick	16	2730	2
100913	12:32	1	r.treasure	17	2098	9
100913	12:32	1	r.muffin	18	1564	6
100913	12:32	1	r.handicap	19	3315	5
100913	12:32	1	r.game	20	2108	5
100913	12:32	1	r.sky	21	2230	6
100913	12:32	1	r.sin	22	2331	4
100913	12:32	1	r.guilty	23	2107	3
100913	12:32	1	r.adult	24	2925	5
100913	12:32	1	r.mind	25	3470	6
100913	12:32	1	r.lump	26	2210	3
100913	12:32	1	r.cow	27	1895	7
100913	12:32	1	r.gun	28	2249	1
100913	12:32	1	r.sweetheart	29	1557	9
100913	12:32	1	r.phase	30	1827	5
100913	12:32	1	r.lonely	31	1959	3
100913	12:32	1	r.slaughter	32	1351	1
100913	12:32	1	r.millionaire	33	1782	9
100913	12:32	1	r.basket	34	1621	5
100913	12:32	1	r.journal	35	1378	5
100913	12:32	1	r.useless	36	2168	2
100913	12:32	1	r.child	37	1591	7
100913	12:32	1	r.shamed	38	1941	3
100913	12:32	1	r.air	39	1749	5
100913	12:32	1	r.burn	40	2957	1
100913	12:32	1	r.fearful	41	1693	1
100913	12:32	1	r.cat	42	2239	9
100913	12:32	1	r.person	43	2715	5
100913	12:32	1	r.cruel	44	2285	4
100913	12:32	1	r.quiet	45	5063	4
100913	12:32	1	r.festive	46	1723	8
100913	12:32	1	r.prairie	47	3316	5
100913	12:32	1	r.beast	48	2494	3
100913	12:32	1	r.curious	49	2240	6
100913	12:32	1	r.water	50	2388	5
100913	12:32	1	r.avalanche	51	2987	2
100913	12:32	1	r.dinner	52	3201	7
100913	12:32	1	r.nasty	53	2424	3
100913	12:32	1	r.sour	54	3053	3
100913	12:32	1	r.glass	55	2793	5
100913	12:32	1	r.patient	56	1895	5
100913	12:32	1	r.hate	57	2593	3
100913	12:32	1	r.life	58	2302	8
100913	12:32	1	r.square	59	1592	5
100913	12:32	1	r.grass	60	2093	6
100913	12:32	1	f.spate	1	3245	4
100913	12:32	1	f.kweem	2	4081	4
100913	12:32	1	f.kloog	3	2548	6
100913	12:32	1	f.broshe	4	2252	7
100913	12:32	1	f.shroom	5	2368	3
100913	12:32	1	f.dwashe	6	3583	5
100913	12:32	1	f.snase	7	3534	2
100913	12:32	1	f.shrove	8	1647	7
100913	12:32	1	f.zoge	9	1515	7
100913	12:32	1	f.stoob	10	2268	4
100913	12:32	1	f.frape	11	2359	3
100913	12:32	1	f.dwooch	12	3822	7
100913	12:32	1	f.spobe	13	2059	5
100913	12:32	1	f.cheed	14	1975	2
100913	12:32	1	f.snafe	15	2278	8
100913	12:32	1	f.gwate	16	1760	7
100913	12:32	1	f.greeb	17	2087	5
100913	12:32	1	f.thwoshe	18	2434	4
100913	12:32	1	f.beesh	19	1742	6
100913	12:32	1	f.klobe	20	1438	5
100913	12:32	1	f.droze	21	1898	3
100913	12:32	1	f.skeese	22	2940	7
100913	12:32	1	f.snache	23	2981	5
100913	12:32	1	f.doog	24	1875	8
100913	12:32	1	f.yase	25	2518	7
100913	12:32	1	f.stobe	26	1528	3
100913	12:32	1	f.frove	27	2640	3
100913	12:32	1	f.flope	28	2845	4
100913	12:32	1	f.kweese	29	2888	4
100913	12:32	1	f.gwoom	30	1963	7
100913	12:32	1	f.twame	31	2026	8
100913	12:32	1	f.koob	32	1559	7
100913	12:32	1	f.shreef	33	2254	5
100913	12:32	1	f.zoor	34	2162	7
100913	12:32	1	f.zathe	35	3377	4
100913	12:32	1	f.peeb	36	3728	3
100913	12:32	1	f.smeep	37	1745	5
100913	12:32	1	f.freech	38	2873	8
100913	12:32	1	f.yeet	39	2508	5
100913	12:32	1	f.snane	40	2110	7
100913	12:32	1	f.snove	41	2751	3
100913	12:32	1	f.spoob	42	3679	4
100913	12:32	1	f.threed	43	2922	7
100913	12:32	1	f.zeeth	44	2315	8
100913	12:32	1	f.skoob	45	2581	4
100913	12:32	1	f.vofe	46	2499	4
100913	12:32	1	f.blobe	47	3117	7
100913	12:32	1	f.smoze	48	2559	7
100913	12:32	1	f.dweese	49	2966	3
100913	12:32	1	f.blole	50	3981	6
100913	12:32	1	f.gwale	51	2093	6
100913	12:32	1	f.kreege	52	3263	5
100913	12:32	1	f.sheeg	53	1546	5
100913	12:32	1	f.shrale	54	2266	3
100913	12:32	1	f.thoot	55	3717	7
100913	12:32	1	f.plool	56	1831	7
100913	12:32	1	f.bleeb	57	1971	7
100913	12:32	1	f.nashe	58	2474	1
100913	12:32	1	f.plave	59	2573	4
100913	12:32	1	f.dwoog	60	2317	8
100913	12:32	1	howtype	1	10213	3
