date	time	subject	trialcode	trialnum	latency	response
101413	10:29	1	speed	1	4451	48
101413	10:29	1	error	2	2538	100
101413	10:29	1	whichhand	3	7706	left
101413	10:29	1	f.zague	1	6919	7
101413	10:29	1	f.tweer	2	5810	4
101413	10:29	1	f.kwache	3	1920	3
101413	10:29	1	f.gwook	4	1897	7
101413	10:29	1	f.stache	5	1699	8
101413	10:29	1	f.brooth	6	1789	7
101413	10:29	1	f.preege	7	3003	3
101413	10:29	1	f.smase	8	1553	3
101413	10:29	1	f.dweeg	9	2913	5
101413	10:29	1	f.sabe	10	4378	4
101413	10:29	1	f.thwake	11	1489	2
101413	10:29	1	f.geeth	12	2100	3
101413	10:29	1	f.dwooth	13	3132	6
101413	10:29	1	f.klache	14	1606	4
101413	10:29	1	f.troge	15	1236	3
101413	10:29	1	f.dwathe	16	1728	6
101413	10:29	1	f.gwoob	17	1664	8
101413	10:29	1	f.flague	18	1515	6
101413	10:29	1	f.kwoove	19	2356	5
101413	10:29	1	f.kleech	20	1836	4
101413	10:29	1	f.dweege	21	1744	7
101413	10:29	1	f.klood	22	2392	6
101413	10:29	1	f.shreesh	23	2030	5
101413	10:29	1	f.kroor	24	4707	5
101413	10:29	1	f.goche	25	1308	3
101413	10:29	1	f.frashe	26	1870	7
101413	10:29	1	f.shreet	27	2417	3
101413	10:29	1	f.yeet	28	1271	3
101413	10:29	1	f.spothe	29	1769	4
101413	10:29	1	f.weeg	30	2104	6
101413	10:29	1	f.zare	31	810	5
101413	10:29	1	f.threep	32	2263	2
101413	10:29	1	f.groosh	33	1418	3
101413	10:29	1	f.skage	34	1111	6
101413	10:29	1	f.dwose	35	1312	4
101413	10:29	1	f.kogue	36	2384	7
101413	10:29	1	f.smathe	37	1551	5
101413	10:29	1	f.soshe	38	1198	4
101413	10:29	1	f.slade	39	1396	7
101413	10:29	1	f.yeeb	40	1201	6
101413	10:29	1	f.steesh	41	2007	8
101413	10:29	1	f.shrool	42	1612	3
101413	10:29	1	f.kweed	43	2410	5
101413	10:29	1	f.slool	44	2583	1
101413	10:29	1	f.troob	45	1085	1
101413	10:29	1	f.gwoche	46	1279	3
101413	10:29	1	f.thwove	47	1569	4
101413	10:29	1	f.wooth	48	2161	5
101413	10:29	1	f.twoche	49	3263	4
101413	10:29	1	f.nage	50	6435	6
101413	10:29	1	f.pague	51	2153	5
101413	10:29	1	f.speep	52	2105	4
101413	10:29	1	f.skooth	53	1635	6
101413	10:29	1	f.thoot	54	3279	3
101413	10:29	1	f.stabe	55	2953	7
101413	10:29	1	f.twague	56	1906	3
101413	10:29	1	f.mobe	57	1499	5
101413	10:29	1	f.thwade	58	1653	4
101413	10:29	1	f.lache	59	1089	6
101413	10:29	1	f.treeb	60	3755	2
101413	10:29	1	r.idol	1	2252	8
101413	10:29	1	r.alimony	2	2056	8
101413	10:29	1	r.moment	3	1596	5
101413	10:29	1	r.trunk	4	1354	6
101413	10:29	1	r.lake	5	3033	8
101413	10:29	1	r.lavish	6	1494	9
101413	10:29	1	r.assassin	7	1263	2
101413	10:29	1	r.arm	8	1610	6
101413	10:29	1	r.life	9	1375	8
101413	10:29	1	r.distressed	10	1310	2
101413	10:29	1	r.ambition	11	1407	9
101413	10:29	1	r.pressure	12	2148	2
101413	10:29	1	r.office	13	1356	6
101413	10:29	1	r.boxer	14	2572	8
101413	10:29	1	r.damage	15	1483	3
101413	10:29	1	r.termite	16	1733	1
101413	10:29	1	r.corrupt	17	1461	1
101413	10:29	1	r.hug	18	1184	9
101413	10:29	1	r.loved	19	1174	9
101413	10:29	1	r.joyful	20	837	8
101413	10:29	1	r.education	21	1369	9
101413	10:29	1	r.cliff	22	2024	4
101413	10:29	1	r.joy	23	1549	7
101413	10:29	1	r.disappoint	24	1437	4
101413	10:29	1	r.narcotic	25	1833	2
101413	10:29	1	r.part	26	1485	5
101413	10:29	1	r.puppy	27	1303	9
101413	10:29	1	r.carcass	28	1217	1
101413	10:29	1	r.scar	29	894	1
101413	10:29	1	r.gripe	30	1807	4
101413	10:29	1	r.patriot	31	2237	7
101413	10:29	1	r.depressed	32	2705	2
101413	10:29	1	r.grief	33	3363	2
101413	10:29	1	r.hat	34	1283	7
101413	10:29	1	r.slow	35	1645	4
101413	10:29	1	r.revolver	36	2088	6
101413	10:29	1	r.nervous	37	1442	4
101413	10:29	1	r.wagon	38	1447	5
101413	10:29	1	r.invest	39	1450	6
101413	10:29	1	r.ocean	40	1821	8
101413	10:29	1	r.danger	41	1291	3
101413	10:29	1	r.sick	42	1117	3
101413	10:29	1	r.selfish	43	1998	2
101413	10:29	1	r.kerosene	44	2091	6
101413	10:29	1	r.dazzle	45	1902	8
101413	10:29	1	r.fatigued	46	1431	3
101413	10:29	1	r.body	47	1251	5
101413	10:29	1	r.foul	48	1687	1
101413	10:29	1	r.passage	49	1617	6
101413	10:29	1	r.pinch	50	2053	4
101413	10:29	1	r.christmas	51	1602	9
101413	10:29	1	r.iron	52	3280	5
101413	10:29	1	r.serious	53	1482	6
101413	10:29	1	r.coast	54	1469	8
101413	10:29	1	r.bold	55	2024	7
101413	10:29	1	r.kettle	56	1325	6
101413	10:29	1	r.quality	57	1270	6
101413	10:29	1	r.defiant	58	1368	3
101413	10:29	1	r.scorching	59	1799	5
101413	10:29	1	r.nightmare	60	1397	3
101413	10:29	1	howtype	1	25312	7
101413	11:01	1	speed	1	2905	30
101413	11:01	1	error	2	1626	100
101413	11:01	1	whichhand	3	14910	right
101413	11:01	1	r.unfaithful	1	5344	1
101413	11:01	1	r.insolent	2	3401	1
101413	11:01	1	r.owl	3	4280	7
101413	11:01	1	r.feeble	4	4091	1
101413	11:01	1	r.song	5	2325	9
101413	11:01	1	r.trust	6	3134	9
101413	11:01	1	r.flirt	7	1903	9
101413	11:01	1	r.fame	8	1025	9
101413	11:01	1	r.bar	9	1830	5
101413	11:01	1	r.disturb	10	2362	1
101413	11:01	1	r.computer	11	2265	5
101413	11:01	1	r.scorching	12	3212	1
101413	11:01	1	r.cook	13	1802	9
101413	11:01	1	r.ecstasy	14	1783	9
101413	11:01	1	r.eat	15	1430	9
101413	11:01	1	r.deformed	16	1626	1
101413	11:01	1	r.corrupt	17	1654	1
101413	11:01	1	r.kettle	18	2290	9
101413	11:01	1	r.impotent	19	1845	1
101413	11:01	1	r.beach	20	2120	9
101413	11:01	1	r.grenade	21	1793	1
101413	11:01	1	r.heroin	22	3247	1
101413	11:01	1	r.graduate	23	2059	9
101413	11:01	1	r.thorn	24	1814	1
101413	11:01	1	r.elegant	25	1931	9
101413	11:01	1	r.tidy	26	1916	9
101413	11:01	1	r.diver	27	1453	9
101413	11:01	1	r.mutilate	28	2248	1
101413	11:01	1	r.sour	29	1052	1
101413	11:01	1	r.clothing	30	1415	9
101413	11:01	1	r.muscular	31	2084	9
101413	11:01	1	r.umbrella	32	1599	9
101413	11:01	1	r.proud	33	972	9
101413	11:01	1	r.news	34	651	9
101413	11:01	1	r.hydrant	35	1806	9
101413	11:01	1	r.kitten	36	1068	9
101413	11:01	1	r.lion	37	975	9
101413	11:01	1	r.jail	38	2085	1
101413	11:01	1	r.dove	39	2248	9
101413	11:01	1	r.tool	40	5179	7
101413	11:01	1	r.hopeful	41	1395	9
101413	11:01	1	r.tumor	42	2120	1
101413	11:01	1	r.column	43	1546	9
101413	11:01	1	r.dream	44	1337	9
101413	11:01	1	r.crushed	45	2129	1
101413	11:01	1	r.subdued	46	1258	1
101413	11:01	1	r.sinful	47	718	1
101413	11:01	1	r.kind	48	1742	9
101413	11:01	1	r.treat	49	1950	9
101413	11:01	1	r.blase	50	2046	1
101413	11:01	1	r.millionaire	51	1634	9
101413	11:01	1	r.breeze	52	654	9
101413	11:01	1	r.taste	53	489	9
101413	11:01	1	r.stupid	54	1555	1
101413	11:01	1	r.voyage	55	2043	9
101413	11:01	1	r.quarrel	56	2967	1
101413	11:01	1	r.cat	57	1734	9
101413	11:01	1	r.corner	58	3094	7
101413	11:01	1	r.black	59	2536	4
101413	11:01	1	r.knot	60	1745	5
101413	11:01	1	f.gwoche	1	3112	1
101413	11:01	1	f.chobe	2	1418	1
101413	11:01	1	f.zoosh	3	2390	9
101413	11:01	1	f.deeg	4	1869	9
101413	11:01	1	f.thwode	5	1992	1
101413	11:01	1	f.freech	6	1054	1
101413	11:01	1	f.blool	7	1818	1
101413	11:01	1	f.breeb	8	1295	1
101413	11:01	1	f.sleech	9	1456	1
101413	11:01	1	f.thwoche	10	1116	1
101413	11:01	1	f.zofe	11	2701	9
101413	11:01	1	f.twague	12	2534	6
101413	11:01	1	f.frape	13	4455	1
101413	11:01	1	f.moob	14	1532	1
101413	11:01	1	f.thweem	15	2276	1
101413	11:01	1	f.sobe	16	1015	1
101413	11:01	1	f.zare	17	2227	9
101413	11:01	1	f.thwofe	18	1648	1
101413	11:01	1	f.zeech	19	1619	9
101413	11:01	1	f.gwoze	20	2136	6
101413	11:01	1	f.theen	21	2457	1
101413	11:01	1	f.vode	22	932	1
101413	11:01	1	f.yogue	23	1813	1
101413	11:01	1	f.voove	24	1546	1
101413	11:01	1	f.smafe	25	2097	9
101413	11:01	1	f.skoge	26	1299	9
101413	11:01	1	f.twome	27	1668	1
101413	11:01	1	f.flooth	28	1383	9
101413	11:01	1	f.slashe	29	1854	1
101413	11:01	1	f.trooch	30	1225	1
101413	11:01	1	f.thwooth	31	1134	1
101413	11:01	1	f.yague	32	766	1
101413	11:01	1	f.toshe	33	789	1
101413	11:01	1	f.kwage	34	1043	1
101413	11:01	1	f.trake	35	1790	9
101413	11:01	1	f.dwathe	36	1565	1
101413	11:01	1	f.speeg	37	2020	9
101413	11:01	1	f.twage	38	1617	1
101413	11:01	1	f.vobe	39	1445	1
101413	11:01	1	f.yache	40	1953	9
101413	11:01	1	f.shreech	41	1617	9
101413	11:01	1	f.spobe	42	1246	9
101413	11:01	1	f.shrooch	43	1497	1
101413	11:01	1	f.slore	44	811	1
101413	11:01	1	f.fleech	45	1927	6
101413	11:01	1	f.speeb	46	1920	6
101413	11:01	1	f.thwane	47	1537	6
101413	11:01	1	f.gwane	48	1657	1
101413	11:01	1	f.chothe	49	1477	1
101413	11:01	1	f.frathe	50	1039	1
101413	11:01	1	f.kogue	51	723	1
101413	11:01	1	f.throoth	52	2411	9
101413	11:01	1	f.sague	53	1041	9
101413	11:01	1	f.gwoog	54	1413	9
101413	11:01	1	f.prool	55	1674	9
101413	11:01	1	f.shrooth	56	1845	1
101413	11:01	1	f.gwoot	57	968	1
101413	11:01	1	f.gwape	58	2127	9
101413	11:01	1	f.dwose	59	1935	1
101413	11:01	1	f.grooge	60	912	1
101413	11:01	1	howtype	1	11239	1
101413	15:33	1	speed	1	2991	82
101413	15:33	1	error	2	1828	89
101413	15:33	1	whichhand	3	4673	right
101413	15:33	1	f.shrothe	1	6069	8
101413	15:33	1	f.krare	2	4137	6
101413	15:33	1	f.twoge	3	2666	5
101413	15:33	1	f.flogue	4	3150	4
101413	15:33	1	f.skeeth	5	2318	7
101413	15:33	1	f.skoog	6	3367	5
101413	15:33	1	f.stashe	7	5334	3
101413	15:33	1	f.krache	8	4464	2
101413	15:33	1	f.sashe	9	3476	5
101413	15:33	1	f.trame	10	3103	4
101413	15:33	1	f.thwathe	11	5192	4
101413	15:33	1	f.toge	12	6111	5
101413	15:33	1	f.thoche	13	2419	6
101413	15:33	1	f.smode	14	2383	2
101413	15:33	1	f.lache	15	2230	3
101413	15:33	1	f.tooge	16	7066	3
101413	15:33	1	f.gwogue	17	6583	2
101413	15:33	1	f.shreel	18	2639	1
101413	15:33	1	f.yeege	19	1692	5
101413	15:33	1	f.shroor	20	1878	3
101413	15:33	1	f.floshe	21	1793	2
101413	15:33	1	f.frooth	22	3334	6
101413	15:33	1	f.nashe	23	2103	5
101413	15:33	1	f.throthe	24	1657	4
101413	15:33	1	f.yabe	25	1629	2
101413	15:33	1	f.frothe	26	2257	7
101413	15:33	1	f.thwage	27	3781	7
101413	15:33	1	f.voge	28	3500	8
101413	15:33	1	f.doog	29	3454	7
101413	15:33	1	f.kwode	30	3562	5
101413	15:33	1	f.sweef	31	1778	3
101413	15:33	1	f.yeese	32	1424	2
101413	15:33	1	f.shreeb	33	2133	3
101413	15:33	1	f.smome	34	3925	5
101413	15:33	1	f.noche	35	2223	4
101413	15:33	1	f.snache	36	3627	4
101413	15:33	1	f.vook	37	2033	5
101413	15:33	1	f.kleef	38	2197	4
101413	15:33	1	f.wache	39	1755	6
101413	15:33	1	f.blole	40	4538	5
101413	15:33	1	f.brague	41	2372	6
101413	15:33	1	f.thwoon	42	2291	4
101413	15:33	1	f.prache	43	5486	4
101413	15:33	1	f.smood	44	1273	6
101413	15:33	1	f.swoof	45	1140	6
101413	15:33	1	f.swase	46	2228	3
101413	15:33	1	f.gweeve	47	7472	4
101413	15:33	1	f.spothe	48	3533	7
101413	15:33	1	f.dwook	49	2503	6
101413	15:33	1	f.shreeze	50	2488	4
101413	15:33	1	f.woog	51	3211	8
101413	15:33	1	f.kweep	52	4176	7
101413	15:33	1	f.snoog	53	2224	6
101413	15:33	1	f.pleef	54	5861	6
101413	15:33	1	f.thague	55	4921	6
101413	15:33	1	f.tweese	56	5931	6
101413	15:33	1	f.shooch	57	2005	4
101413	15:33	1	f.gweeth	58	1235	4
101413	15:33	1	f.breep	59	983	4
101413	15:33	1	f.joche	60	1885	6
101413	15:33	1	r.nurse	1	2356	7
101413	15:33	1	r.kettle	2	2068	8
101413	15:33	1	r.cash	3	2551	9
101413	15:33	1	r.proud	4	1607	7
101413	15:33	1	r.milk	5	2700	5
101413	15:33	1	r.menace	6	2663	2
101413	15:33	1	r.phase	7	3546	5
101413	15:33	1	r.tomb	8	1730	3
101413	15:33	1	r.grin	9	3003	4
101413	15:33	1	r.startled	10	2481	3
101413	15:33	1	r.intruder	11	1675	1
101413	15:33	1	r.corner	12	2558	4
101413	15:33	1	r.war	13	1886	1
101413	15:33	1	r.poster	14	1600	5
101413	15:33	1	r.sleep	15	3110	6
101413	15:33	1	r.vest	16	1143	5
101413	15:33	1	r.nectar	17	2479	7
101413	15:33	1	r.church	18	2225	5
101413	15:33	1	r.controlling	19	2278	1
101413	15:33	1	r.toothache	20	2208	2
101413	15:33	1	r.abortion	21	1198	1
101413	15:33	1	r.hostile	22	1604	4
101413	15:33	1	r.wagon	23	1721	5
101413	15:33	1	r.blister	24	1442	3
101413	15:33	1	r.corrupt	25	1174	2
101413	15:33	1	r.inspire	26	1693	8
101413	15:33	1	r.serious	27	1623	5
101413	15:33	1	r.pretty	28	2020	8
101413	15:33	1	r.sun	29	2105	6
101413	15:33	1	r.distressed	30	2699	2
101413	15:33	1	r.violent	31	2533	1
101413	15:33	1	r.easy	32	1581	6
101413	15:33	1	r.statue	33	1299	5
101413	15:33	1	r.deceit	34	2413	3
101413	15:33	1	r.mountain	35	4882	5
101413	15:33	1	r.money	36	2749	9
101413	15:33	1	r.prestige	37	1734	8
101413	15:33	1	r.cozy	38	3974	7
101413	15:33	1	r.beggar	39	1086	3
101413	15:33	1	r.fame	40	1616	8
101413	15:33	1	r.joy	41	1293	8
101413	15:33	1	r.dancer	42	1598	5
101413	15:33	1	r.suspicious	43	1867	2
101413	15:33	1	r.market	44	845	5
101413	15:33	1	r.mildew	45	1089	4
101413	15:33	1	r.thrill	46	1299	7
101413	15:33	1	r.wealthy	47	1413	8
101413	15:33	1	r.coin	48	1505	5
101413	15:33	1	r.teacher	49	771	5
101413	15:33	1	r.clock	50	754	5
101413	15:33	1	r.invest	51	1745	7
101413	15:33	1	r.reunion	52	1481	7
101413	15:33	1	r.journal	53	1179	5
101413	15:33	1	r.bar	54	1681	5
101413	15:33	1	r.column	55	699	5
101413	15:33	1	r.hand	56	1733	5
101413	15:33	1	r.blasphemy	57	1909	2
101413	15:33	1	r.charm	58	1143	7
101413	15:33	1	r.hammer	59	2830	5
101413	15:33	1	r.trash	60	715	5
101413	15:33	1	howtype	1	6770	5
101413	15:57	1	speed	1	2707	48
101413	15:57	1	error	2	1756	100
101413	15:57	1	whichhand	3	7333	Right
101413	15:57	1	f.sneem	1	24518	4
101413	15:57	1	f.foob	2	8895	6
101413	15:57	1	f.swogue	3	16963	8
101413	15:57	1	f.kweeb	4	11103	3
101413	15:57	1	f.prate	5	6540	5
101413	15:57	1	f.dwashe	6	6974	7
101413	15:57	1	f.chothe	7	3974	2
101413	15:57	1	f.glool	8	5622	8
101413	15:57	1	f.yofe	9	5509	4
101413	15:57	1	f.swobe	10	6175	6
101413	15:57	1	f.smathe	11	4175	8
101413	15:57	1	f.plafe	12	5414	3
101413	15:57	1	f.droose	13	2733	1
101413	15:57	1	f.pleel	14	4845	5
101413	15:57	1	f.dwate	15	3658	2
101413	15:57	1	f.drothe	16	3974	4
101413	15:57	1	f.thale	17	4910	6
101413	15:57	1	f.klope	18	3912	5
101413	15:57	1	f.dwoon	19	3690	8
101413	15:57	1	f.slore	20	5172	3
101413	15:57	1	f.wothe	21	5325	6
101413	15:57	1	f.pleeve	22	4710	6
101413	15:57	1	f.frobe	23	4160	2
101413	15:57	1	f.shroog	24	6584	4
101413	15:57	1	f.seeg	25	4704	1
101413	15:57	1	f.thane	26	4483	7
101413	15:57	1	f.trague	27	3422	4
101413	15:57	1	f.vame	28	2555	7
101413	15:57	1	f.blafe	29	2859	7
101413	15:57	1	f.yoche	30	4735	5
101413	15:57	1	f.thwoog	31	7056	3
101413	15:57	1	f.spave	32	6189	5
101413	15:57	1	f.dweem	33	5301	3
101413	15:57	1	f.stoosh	34	3456	8
101413	15:57	1	f.kroor	35	3669	5
101413	15:57	1	f.snabe	36	3344	3
101413	15:57	1	f.toge	37	2896	7
101413	15:57	1	f.kwoom	38	3787	9
101413	15:57	1	f.dwoor	39	4185	4
101413	15:57	1	f.prake	40	1793	3
101413	15:57	1	f.fobe	41	3270	5
101413	15:57	1	f.freege	42	3482	2
101413	15:57	1	f.skeeg	43	4141	8
101413	15:57	1	f.sneef	44	2566	6
101413	15:57	1	f.thofe	45	2397	3
101413	15:57	1	f.spove	46	7027	5
101413	15:57	1	f.droof	47	3865	2
101413	15:57	1	f.flache	48	4149	7
101413	15:57	1	f.veep	49	4013	8
101413	15:57	1	f.throol	50	4739	1
101413	15:57	1	f.vake	51	8669	4
101413	15:57	1	f.skake	52	5698	1
101413	15:57	1	f.thwoof	53	2381	7
101413	15:57	1	f.yope	54	1787	4
101413	15:57	1	f.slague	55	3666	8
101413	15:57	1	f.gweeb	56	5029	3
101413	15:57	1	f.froshe	57	5435	8
101413	15:57	1	f.jofe	58	2576	6
101413	15:57	1	f.floob	59	5311	2
101413	15:57	1	f.snoom	60	4969	5
101413	15:57	1	r.blubber	1	10577	4
101413	15:57	1	r.foot	2	2939	2
101413	15:57	1	r.wedding	3	2924	8
101413	15:57	1	r.grief	4	3093	2
101413	15:57	1	r.starving	5	3359	1
101413	15:57	1	r.intellect	6	2655	7
101413	15:57	1	r.thief	7	3826	1
101413	15:57	1	r.misery	8	1911	1
101413	15:57	1	r.bar	9	5088	6
101413	15:57	1	r.context	10	9940	5
101413	15:57	1	r.nectar	11	4326	7
101413	15:57	1	r.defeated	12	2176	4
101413	15:57	1	r.victory	13	2542	9
101413	15:57	1	r.thorn	14	2166	1
101413	15:57	1	r.statue	15	9349	6
101413	15:57	1	r.dove	16	1839	8
101413	15:57	1	r.doll	17	1724	7
101413	15:57	1	r.cord	18	1845	2
101413	15:57	1	r.malice	19	4688	3
101413	15:57	1	r.festive	20	4652	9
101413	15:57	1	r.innocent	21	3208	5
101413	15:57	1	r.menace	22	2206	3
101413	15:57	1	r.athletics	23	2587	7
101413	15:57	1	r.divorce	24	5194	1
101413	15:57	1	r.tune	25	3145	8
101413	15:57	1	r.wonder	26	2025	6
101413	15:57	1	r.immature	27	2414	2
101413	15:57	1	r.confident	28	2308	8
101413	15:57	1	r.farm	29	2205	9
101413	15:57	1	r.comfort	30	1891	8
101413	15:57	1	r.river	31	2590	8
101413	15:57	1	r.radiant	32	1508	7
101413	15:57	1	r.measles	33	2078	2
101413	15:57	1	r.knife	34	1336	1
101413	15:57	1	r.scream	35	1417	4
101413	15:57	1	r.mosquito	36	1597	1
101413	15:57	1	r.shark	37	955	1
101413	15:57	1	r.cell	38	2610	5
101413	15:57	1	r.anguished	39	1768	2
101413	15:57	1	r.embattled	40	1551	4
101413	15:57	1	r.jug	41	1806	6
101413	15:57	1	r.hell	42	2100	1
101413	15:57	1	r.hug	43	2733	7
101413	15:57	1	r.bomb	44	1726	1
101413	15:57	1	r.pizza	45	2078	9
101413	15:57	1	r.betray	46	2561	4
101413	15:57	1	r.syphilis	47	3504	1
101413	15:57	1	r.sin	48	1171	1
101413	15:57	1	r.education	49	4793	4
101413	15:57	1	r.garden	50	2056	8
101413	15:57	1	r.mail	51	2020	7
101413	15:57	1	r.elated	52	1649	5
101413	15:57	1	r.absurd	53	2156	5
101413	15:57	1	r.delayed	54	2628	3
101413	15:57	1	r.clumsy	55	3240	5
101413	15:57	1	r.grass	56	3678	6
101413	15:57	1	r.sickness	57	1625	3
101413	15:57	1	r.haphazard	58	3238	2
101413	15:57	1	r.family	59	1971	9
101413	15:57	1	r.violent	60	1465	2
101413	15:57	1	howtype	1	12323	6
101413	16:27	1	speed	1	2773	50
101413	16:27	1	error	2	1557	98
101413	16:27	1	whichhand	3	8167	right
101413	16:27	1	r.vest	1	16948	5
101413	16:27	1	r.blossom	2	6321	9
101413	16:27	1	r.lamp	3	4060	5
101413	16:27	1	r.muscular	4	2648	9
101413	16:27	1	r.impotent	5	8100	5
101413	16:27	1	r.elated	6	4471	5
101413	16:27	1	r.hat	7	6108	7
101413	16:27	1	r.god	8	3998	1
101413	16:27	1	r.controlling	9	6668	6
101413	16:27	1	r.puppy	10	2009	9
101413	16:27	1	r.dump	11	1950	1
101413	16:27	1	r.satisfied	12	1966	9
101413	16:27	1	r.sentiment	13	2229	9
101413	16:27	1	r.flood	14	2338	1
101413	16:27	1	r.addicted	15	2562	1
101413	16:27	1	r.crucify	16	1537	1
101413	16:27	1	r.lottery	17	1746	9
101413	16:27	1	r.foot	18	2385	5
101413	16:27	1	r.refreshment	19	1719	9
101413	16:27	1	r.passage	20	2936	5
101413	16:27	1	r.poverty	21	1217	1
101413	16:27	1	r.crude	22	1429	1
101413	16:27	1	r.event	23	2266	8
101413	16:27	1	r.neglect	24	1366	1
101413	16:27	1	r.weary	25	1188	1
101413	16:27	1	r.mischief	26	883	1
101413	16:27	1	r.soft	27	1501	9
101413	16:27	1	r.hamburger	28	1798	9
101413	16:27	1	r.seat	29	2604	9
101413	16:27	1	r.neurotic	30	3658	5
101413	16:27	1	r.icebox	31	2358	9
101413	16:27	1	r.candy	32	1398	9
101413	16:27	1	r.scream	33	1412	1
101413	16:27	1	r.pie	34	1400	9
101413	16:27	1	r.timid	35	1950	1
101413	16:27	1	r.skyscraper	36	2590	5
101413	16:27	1	r.discomfort	37	1348	1
101413	16:27	1	r.trauma	38	1035	1
101413	16:27	1	r.promotion	39	1952	9
101413	16:27	1	r.terrific	40	2824	9
101413	16:27	1	r.bird	41	2381	8
101413	16:27	1	r.poetry	42	2267	8
101413	16:27	1	r.lazy	43	3399	1
101413	16:27	1	r.success	44	1357	9
101413	16:27	1	r.angel	45	1628	9
101413	16:27	1	r.finger	46	2592	5
101413	16:27	1	r.opinion	47	2686	9
101413	16:27	1	r.clumsy	48	1361	1
101413	16:27	1	r.carcass	49	3687	1
101413	16:27	1	r.scum	50	1098	1
101413	16:27	1	r.offend	51	1348	1
101413	16:27	1	r.manure	52	3196	5
101413	16:27	1	r.putrid	53	1106	1
101413	16:27	1	r.orgasm	54	7691	9
101413	16:27	1	r.excitement	55	1511	9
101413	16:27	1	r.repentant	56	2360	9
101413	16:27	1	r.dreary	57	2047	1
101413	16:27	1	r.ankle	58	4466	5
101413	16:27	1	r.agony	59	1374	1
101413	16:27	1	r.mantel	60	1869	1
101413	16:27	1	f.glase	1	7124	5
101413	16:27	1	f.pleel	2	1550	5
101413	16:27	1	f.plooge	3	5093	5
101413	16:27	1	f.vofe	4	9288	1
101413	16:27	1	f.gwashe	5	10165	1
101413	16:27	1	f.shroor	6	3119	1
101413	16:27	1	f.spape	7	6832	1
101413	16:27	1	f.sleesh	8	2191	5
101413	16:27	1	f.thofe	9	1589	5
101413	16:27	1	f.threek	10	3203	5
101413	16:27	1	f.joof	11	5818	5
101413	16:27	1	f.slooch	12	4912	1
101413	16:27	1	f.sweeth	13	5426	6
101413	16:27	1	f.plape	14	1104	5
101413	16:27	1	f.freech	15	1401	5
101413	16:27	1	f.plole	16	1142	5
101413	16:27	1	f.thweet	17	766	5
101413	16:27	1	f.dwore	18	789	5
101413	16:27	1	f.dwooge	19	1059	5
101413	16:27	1	f.spooge	20	838	5
101413	16:27	1	f.sloob	21	2210	5
101413	16:27	1	f.prate	22	1903	5
101413	16:27	1	f.poom	23	1129	5
101413	16:27	1	f.thrafe	24	3897	5
101413	16:27	1	f.moob	25	699	5
101413	16:27	1	f.stoob	26	941	5
101413	16:27	1	f.tweef	27	693	5
101413	16:27	1	f.stoog	28	566	5
101413	16:27	1	f.prage	29	733	5
101413	16:27	1	f.jooch	30	621	5
101413	16:27	1	f.kwache	31	593	5
101413	16:27	1	f.dooch	32	711	5
101413	16:27	1	f.breep	33	815	5
101413	16:27	1	f.prape	34	740	5
101413	16:27	1	f.toove	35	571	5
101413	16:27	1	f.gwogue	36	594	5
101413	16:27	1	f.yeeve	37	504	5
101413	16:27	1	f.skake	38	953	5
101413	16:27	1	f.thwooth	39	592	5
101413	16:27	1	f.dwane	40	566	5
101413	16:27	1	f.thrathe	41	1053	5
101413	16:27	1	f.flape	42	2560	1
101413	16:27	1	f.zook	43	3191	9
101413	16:27	1	f.tweesh	44	2181	5
101413	16:27	1	f.kroche	45	1380	5
101413	16:27	1	f.steech	46	882	5
101413	16:27	1	f.thrope	47	1140	5
101413	16:27	1	f.thwoshe	48	716	5
101413	16:27	1	f.twague	49	1765	5
101413	16:27	1	f.gwabe	50	2844	5
101413	16:27	1	f.sleech	51	1471	5
101413	16:27	1	f.speeve	52	539	5
101413	16:27	1	f.stoof	53	523	5
101413	16:27	1	f.dwooze	54	507	5
101413	16:27	1	f.smoove	55	2061	9
101413	16:27	1	f.jote	56	1599	5
101413	16:27	1	f.droge	57	668	5
101413	16:27	1	f.kwade	58	496	5
101413	16:27	1	f.plache	59	481	5
101413	16:27	1	f.theege	60	803	5
101413	16:27	1	howtype	1	17463	7
101713	10:57	1	speed	1	2991	76
101713	10:57	1	error	2	1954	93
101713	10:57	1	whichhand	3	12698	Right
101713	10:57	1	f.bashe	1	5544	3
101713	10:57	1	f.skeesh	2	6113	3
101713	10:57	1	f.smoog	3	1508	1
101713	10:57	1	f.snode	4	1981	4
101713	10:57	1	f.shrooge	5	1643	1
101713	10:57	1	f.thwome	6	2759	6
101713	10:57	1	f.dreeze	7	1557	6
101713	10:57	1	f.meesh	8	2078	4
101713	10:57	1	f.gwane	9	3263	8
101713	10:57	1	f.throop	10	1875	7
101713	10:57	1	f.thweek	11	4789	6
101713	10:57	1	f.tweef	12	2596	7
101713	10:57	1	f.plare	13	2332	9
101713	10:57	1	f.sneesh	14	4387	3
101713	10:57	1	f.shroose	15	2802	3
101713	10:57	1	f.snoof	16	1970	6
101713	10:57	1	f.klogue	17	4008	1
101713	10:57	1	f.kague	18	2742	7
101713	10:57	1	f.weeg	19	1525	1
101713	10:57	1	f.stoosh	20	3925	4
101713	10:57	1	f.gleeg	21	2528	4
101713	10:57	1	f.feech	22	7208	6
101713	10:57	1	f.treege	23	2647	7
101713	10:57	1	f.thote	24	2603	7
101713	10:57	1	f.sweem	25	5153	7
101713	10:57	1	f.twothe	26	1410	6
101713	10:57	1	f.shrage	27	1726	3
101713	10:57	1	f.dwape	28	805	3
101713	10:57	1	f.plope	29	2717	6
101713	10:57	1	f.foop	30	1766	9
101713	10:57	1	f.kleel	31	2013	8
101713	10:57	1	f.sleed	32	2154	8
101713	10:57	1	f.gwashe	33	1402	1
101713	10:57	1	f.shroosh	34	3271	4
101713	10:57	1	f.dwaze	35	4619	8
101713	10:57	1	f.sweeb	36	3329	6
101713	10:57	1	f.dreese	37	1226	7
101713	10:57	1	f.zook	38	1958	9
101713	10:57	1	f.breep	39	6502	4
101713	10:57	1	f.woche	40	2057	1
101713	10:57	1	f.yoshe	41	1381	9
101713	10:57	1	f.blague	42	2291	1
101713	10:57	1	f.snoose	43	1870	3
101713	10:57	1	f.thwaze	44	1305	3
101713	10:57	1	f.deeb	45	2482	7
101713	10:57	1	f.kwape	46	1765	6
101713	10:57	1	f.thwape	47	1244	6
101713	10:57	1	f.prooch	48	2583	4
101713	10:57	1	f.zafe	49	1710	9
101713	10:57	1	f.vave	50	1239	9
101713	10:57	1	f.thoob	51	2627	6
101713	10:57	1	f.thwore	52	3112	4
101713	10:57	1	f.greeb	53	1817	4
101713	10:57	1	f.neesh	54	2896	3
101713	10:57	1	f.theef	55	1375	9
101713	10:57	1	f.fague	56	2573	3
101713	10:57	1	f.shrale	57	4974	3
101713	10:57	1	f.trogue	58	3566	9
101713	10:57	1	f.snafe	59	4429	4
101713	10:57	1	f.gwague	60	2506	1
101713	10:57	1	r.divorce	1	3379	1
101713	10:57	1	r.dark	2	2611	1
101713	10:57	1	r.debt	3	1104	1
101713	10:57	1	r.handicap	4	864	1
101713	10:57	1	r.cow	5	981	1
101713	10:57	1	r.tank	6	1802	9
101713	10:57	1	r.neglect	7	1400	1
101713	10:57	1	r.allergy	8	1966	2
101713	10:57	1	r.solemn	9	821	1
101713	10:57	1	r.gentle	10	1033	9
101713	10:57	1	r.violin	11	1837	7
101713	10:57	1	r.storm	12	2546	8
101713	10:57	1	r.young	13	2410	7
101713	10:57	1	r.rock	14	2111	5
101713	10:57	1	r.alien	15	1712	5
101713	10:57	1	r.betray	16	1777	1
101713	10:57	1	r.love	17	1215	9
101713	10:57	1	r.village	18	1804	6
101713	10:57	1	r.cemetery	19	2026	4
101713	10:57	1	r.impair	20	2430	1
101713	10:57	1	r.overwhelmed	21	1083	1
101713	10:57	1	r.sheltered	22	981	9
101713	10:57	1	r.custom	23	3851	6
101713	10:57	1	r.millionaire	24	1615	7
101713	10:57	1	r.key	25	3452	6
101713	10:57	1	r.favor	26	2920	6
101713	10:57	1	r.wasp	27	2642	1
101713	10:57	1	r.doctor	28	1374	8
101713	10:57	1	r.scandal	29	1109	1
101713	10:57	1	r.excitement	30	3478	8
101713	10:57	1	r.reunion	31	4009	8
101713	10:57	1	r.delayed	32	1991	5
101713	10:57	1	r.ambition	33	3004	9
101713	10:57	1	r.bathtub	34	2035	5
101713	10:57	1	r.pencil	35	1360	6
101713	10:57	1	r.acceptance	36	2694	7
101713	10:57	1	r.rescue	37	1272	7
101713	10:57	1	r.lucky	38	931	8
101713	10:57	1	r.loyal	39	1483	9
101713	10:57	1	r.timid	40	3341	4
101713	10:57	1	r.sissy	41	3686	2
101713	10:57	1	r.easygoing	42	1425	7
101713	10:57	1	r.admired	43	1742	8
101713	10:57	1	r.baby	44	942	2
101713	10:57	1	r.scholar	45	1231	8
101713	10:57	1	r.menace	46	1035	1
101713	10:57	1	r.bold	47	1815	8
101713	10:57	1	r.month	48	6396	5
101713	10:57	1	r.scornful	49	1139	1
101713	10:57	1	r.hamburger	50	3883	6
101713	10:57	1	r.fever	51	1414	4
101713	10:57	1	r.star	52	1171	8
101713	10:57	1	r.bliss	53	1858	7
101713	10:57	1	r.shark	54	1717	2
101713	10:57	1	r.ennui	55	3390	3
101713	10:57	1	r.water	56	1821	8
101713	10:57	1	r.exercise	57	3922	7
101713	10:57	1	r.failure	58	1012	2
101713	10:57	1	r.memory	59	2121	7
101713	10:57	1	r.spanking	60	1705	1
101713	10:57	1	howtype	1	13514	7
101713	11:35	1	speed	1	3217	82
101713	11:35	1	error	2	1801	95
101713	11:35	1	whichhand	3	5599	left
101713	11:35	1	f.gwogue	1	5805	1
101713	11:35	1	f.stoog	2	2044	1
101713	11:35	1	f.dabe	3	1160	1
101713	11:35	1	f.froove	4	759	1
101713	11:35	1	f.thwothe	5	686	1
101713	11:35	1	f.dwooze	6	912	1
101713	11:35	1	f.chode	7	2975	3
101713	11:35	1	f.thobe	8	1616	1
101713	11:35	1	f.gwoge	9	2708	1
101713	11:35	1	f.kleeg	10	1118	1
101713	11:35	1	f.zothe	11	998	1
101713	11:35	1	f.snome	12	821	1
101713	11:35	1	f.troge	13	721	1
101713	11:35	1	f.groob	14	2378	1
101713	11:35	1	f.jashe	15	1768	2
101713	11:35	1	f.twathe	16	1447	1
101713	11:35	1	f.freeth	17	1883	4
101713	11:35	1	f.stoshe	18	1301	3
101713	11:35	1	f.slole	19	3279	2
101713	11:35	1	f.plore	20	1626	5
101713	11:35	1	f.thwoop	21	3414	4
101713	11:35	1	f.skeese	22	2196	5
101713	11:35	1	f.dweel	23	1434	4
101713	11:35	1	f.wache	24	942	3
101713	11:35	1	f.gleel	25	982	5
101713	11:35	1	f.frofe	26	1012	4
101713	11:35	1	f.ploor	27	993	5
101713	11:35	1	f.spome	28	790	4
101713	11:35	1	f.peeth	29	1716	5
101713	11:35	1	f.swobe	30	2613	5
101713	11:35	1	f.thape	31	803	4
101713	11:35	1	f.thashe	32	1024	4
101713	11:35	1	f.kwache	33	1093	6
101713	11:35	1	f.shraze	34	1246	4
101713	11:35	1	f.smoog	35	2889	3
101713	11:35	1	f.gwook	36	1364	4
101713	11:35	1	f.jabe	37	2675	1
101713	11:35	1	f.treege	38	1854	4
101713	11:35	1	f.kloog	39	1906	5
101713	11:35	1	f.yeege	40	772	4
101713	11:35	1	f.gwoon	41	826	4
101713	11:35	1	f.klape	42	2214	4
101713	11:35	1	f.thope	43	1499	3
101713	11:35	1	f.snathe	44	1293	4
101713	11:35	1	f.twague	45	623	5
101713	11:35	1	f.zashe	46	1259	4
101713	11:35	1	f.fogue	47	1054	4
101713	11:35	1	f.greesh	48	1953	4
101713	11:35	1	f.joshe	49	2361	4
101713	11:35	1	f.thale	50	1200	4
101713	11:35	1	f.dweeve	51	974	3
101713	11:35	1	f.kroob	52	940	4
101713	11:35	1	f.vake	53	1396	7
101713	11:35	1	f.swaze	54	1282	7
101713	11:35	1	f.keeb	55	844	4
101713	11:35	1	f.thwooge	56	2487	4
101713	11:35	1	f.voke	57	1266	3
101713	11:35	1	f.frope	58	1981	7
101713	11:35	1	f.poosh	59	1731	6
101713	11:35	1	f.blafe	60	2884	5
101713	11:35	1	r.embarrassed	1	13333	4
101713	11:35	1	r.coward	2	7858	3
101713	11:35	1	r.triumphant	3	3679	9
101713	11:35	1	r.arrogant	4	5802	3
101713	11:35	1	r.nipple	5	6321	5
101713	11:35	1	r.obsession	6	3876	5
101713	11:35	1	r.sun	7	2679	9
101713	11:35	1	r.honey	8	1697	9
101713	11:35	1	r.lawn	9	4931	7
101713	11:35	1	r.virgin	10	2300	7
101713	11:35	1	r.hard	11	4174	5
101713	11:35	1	r.handsome	12	1806	9
101713	11:35	1	r.dreary	13	2148	4
101713	11:35	1	r.restaurant	14	3419	7
101713	11:35	1	r.elevator	15	3169	5
101713	11:35	1	r.money	16	1761	9
101713	11:35	1	r.serious	17	3784	6
101713	11:35	1	r.carefree	18	2447	9
101713	11:35	1	r.pasta	19	6026	6
101713	11:35	1	r.crushed	20	5640	4
101713	11:35	1	r.troubled	21	4054	4
101713	11:35	1	r.dazzle	22	2986	8
101713	11:35	1	r.promotion	23	1849	9
101713	11:35	1	r.treasure	24	901	9
101713	11:35	1	r.hat	25	2454	5
101713	11:35	1	r.dress	26	1890	8
101713	11:35	1	r.crucify	27	2972	3
101713	11:35	1	r.silk	28	2276	8
101713	11:35	1	r.pistol	29	3222	5
101713	11:35	1	r.misery	30	3156	1
101713	11:35	1	r.poetry	31	2868	6
101713	11:35	1	r.family	32	1591	9
101713	11:35	1	r.orgasm	33	2277	5
101713	11:35	1	r.bliss	34	8576	5
101713	11:35	1	r.hand	35	2393	5
101713	11:35	1	r.tank	36	4319	4
101713	11:35	1	r.kettle	37	3153	4
101713	11:35	1	r.color	38	1873	8
101713	11:35	1	r.terrible	39	2267	2
101713	11:35	1	r.fungus	40	1735	1
101713	11:35	1	r.profit	41	1671	9
101713	11:35	1	r.salad	42	2650	7
101713	11:35	1	r.column	43	2341	5
101713	11:35	1	r.greet	44	2022	8
101713	11:35	1	r.debt	45	1540	1
101713	11:35	1	r.paradise	46	1476	9
101713	11:35	1	r.agreement	47	1342	9
101713	11:35	1	r.doctor	48	924	9
101713	11:35	1	r.cow	49	3510	5
101713	11:35	1	r.sin	50	2567	2
101713	11:35	1	r.dream	51	1695	8
101713	11:35	1	r.swimmer	52	2832	5
101713	11:35	1	r.useless	53	1949	2
101713	11:35	1	r.avenue	54	3244	7
101713	11:35	1	r.anger	55	1833	2
101713	11:35	1	r.blackmail	56	1581	2
101713	11:35	1	r.wit	57	2043	5
101713	11:35	1	r.travel	58	1383	9
101713	11:35	1	r.crash	59	3517	2
101713	11:35	1	r.killer	60	1511	1
101713	11:35	1	howtype	1	12382	6
101713	11:49	1	speed	1	3130	41
101713	11:49	1	error	2	2080	95
101713	11:49	1	whichhand	3	8507	right
101713	11:49	1	f.krashe	1	7323	1
101713	11:49	1	f.gweege	2	3926	1
101713	11:49	1	f.pome	3	1823	1
101713	11:49	1	f.zore	4	1964	1
101713	11:49	1	f.flache	5	3235	6
101713	11:49	1	f.wooch	6	2719	4
101713	11:49	1	f.preem	7	2633	3
101713	11:49	1	f.skoom	8	2381	2
101713	11:49	1	f.zeek	9	1748	1
101713	11:49	1	f.dwoom	10	2620	4
101713	11:49	1	f.sloosh	11	2265	6
101713	11:49	1	f.trabe	12	2268	3
101713	11:49	1	f.gweet	13	2271	3
101713	11:49	1	f.peeg	14	5299	2
101713	11:49	1	f.bleeg	15	1557	2
101713	11:49	1	f.thwote	16	1813	2
101713	11:49	1	f.thweech	17	1770	3
101713	11:49	1	f.soosh	18	2081	5
101713	11:49	1	f.joog	19	1243	3
101713	11:49	1	f.dreese	20	1927	2
101713	11:49	1	f.gwape	21	1479	2
101713	11:49	1	f.joot	22	1401	2
101713	11:49	1	f.gwothe	23	2103	5
101713	11:49	1	f.snoof	24	1673	4
101713	11:49	1	f.threek	25	1332	3
101713	11:49	1	f.chome	26	1932	5
101713	11:49	1	f.thweeb	27	3940	4
101713	11:49	1	f.stooth	28	3885	2
101713	11:49	1	f.threer	29	1736	2
101713	11:49	1	f.skabe	30	1049	2
101713	11:49	1	f.dwome	31	1804	3
101713	11:49	1	f.jague	32	1314	2
101713	11:49	1	f.slage	33	3547	4
101713	11:49	1	f.moshe	34	6402	5
101713	11:49	1	f.koob	35	2538	6
101713	11:49	1	f.smose	36	2587	2
101713	11:49	1	f.frathe	37	3137	5
101713	11:49	1	f.spape	38	3754	7
101713	11:49	1	f.brage	39	2066	3
101713	11:49	1	f.thothe	40	2478	2
101713	11:49	1	f.flathe	41	3440	7
101713	11:49	1	f.zogue	42	4037	5
101713	11:49	1	f.gwode	43	2386	4
101713	11:49	1	f.kloche	44	3321	3
101713	11:49	1	f.thwooge	45	4130	5
101713	11:49	1	f.swothe	46	2539	5
101713	11:49	1	f.frooge	47	2020	5
101713	11:49	1	f.dwoof	48	2761	4
101713	11:49	1	f.thwood	49	1808	3
101713	11:49	1	f.droge	50	2022	2
101713	11:49	1	f.slare	51	3867	4
101713	11:49	1	f.snoche	52	2559	4
101713	11:49	1	f.stoshe	53	1678	2
101713	11:49	1	f.snoob	54	1536	2
101713	11:49	1	f.sneeth	55	1905	3
101713	11:49	1	f.gloof	56	2178	4
101713	11:49	1	f.yane	57	2488	1
101713	11:49	1	f.zache	58	2091	4
101713	11:49	1	f.tweese	59	1926	2
101713	11:49	1	f.thwale	60	13078	5
101713	11:49	1	r.untroubled	1	5408	7
101713	11:49	1	r.thankful	2	2766	9
101713	11:49	1	r.abduction	3	3646	1
101713	11:49	1	r.rigid	4	3138	2
101713	11:49	1	r.startled	5	3675	4
101713	11:49	1	r.alert	6	5470	5
101713	11:49	1	r.violent	7	2491	1
101713	11:49	1	r.achievement	8	1917	9
101713	11:49	1	r.whore	9	3526	1
101713	11:49	1	r.chocolate	10	4471	5
101713	11:49	1	r.mother	11	2147	8
101713	11:49	1	r.divorce	12	2635	1
101713	11:49	1	r.cell	13	5471	5
101713	11:49	1	r.idol	14	2403	7
101713	11:49	1	r.kerchief	15	3609	5
101713	11:49	1	r.happy	16	4751	6
101713	11:49	1	r.fault	17	1728	3
101713	11:49	1	r.clouds	18	2224	4
101713	11:49	1	r.glory	19	1741	9
101713	11:49	1	r.locker	20	2453	5
101713	11:49	1	r.bouquet	21	1281	5
101713	11:49	1	r.face	22	1252	5
101713	11:49	1	r.pie	23	2102	5
101713	11:49	1	r.city	24	1497	5
101713	11:49	1	r.insolent	25	1946	3
101713	11:49	1	r.young	26	2658	5
101713	11:49	1	r.heaven	27	1958	8
101713	11:49	1	r.grime	28	1782	2
101713	11:49	1	r.grin	29	2428	6
101713	11:49	1	r.engine	30	2081	5
101713	11:49	1	r.illness	31	1283	5
101713	11:49	1	r.timid	32	2821	5
101713	11:49	1	r.intercourse	33	5451	8
101713	11:49	1	r.fascinate	34	2087	8
101713	11:49	1	r.casino	35	2178	5
101713	11:49	1	r.identity	36	2040	5
101713	11:49	1	r.ketchup	37	2029	1
101713	11:49	1	r.mail	38	5369	5
101713	11:49	1	r.agility	39	2705	8
101713	11:49	1	r.blossom	40	2539	7
101713	11:49	1	r.dummy	41	1828	4
101713	11:49	1	r.activate	42	1928	5
101713	11:49	1	r.sour	43	2513	4
101713	11:49	1	r.reverent	44	1970	4
101713	11:49	1	r.dog	45	2753	7
101713	11:49	1	r.enraged	46	2529	3
101713	11:49	1	r.disaster	47	1889	1
101713	11:49	1	r.hydrant	48	2348	1
101713	11:49	1	r.wedding	49	2804	8
101713	11:49	1	r.bandage	50	2482	4
101713	11:49	1	r.riot	51	3036	2
101713	11:49	1	r.poverty	52	4593	1
101713	11:49	1	r.lie	53	2288	3
101713	11:49	1	r.kick	54	2618	5
101713	11:49	1	r.month	55	1576	5
101713	11:49	1	r.rescue	56	2302	7
101713	11:49	1	r.book	57	1744	5
101713	11:49	1	r.damage	58	2328	1
101713	11:49	1	r.rough	59	1656	2
101713	11:49	1	r.offend	60	2228	2
101713	11:49	1	howtype	1	14983	3
101713	12:56	1	speed	1	2836	33
101713	12:56	1	error	2	1858	96
101713	12:56	1	whichhand	3	5358	right
101713	12:56	1	f.shrare	1	5415	7
101713	12:56	1	f.dwage	2	5277	3
101713	12:56	1	f.gwore	3	3857	2
101713	12:56	1	f.gwoon	4	1869	1
101713	12:56	1	f.smose	5	2536	1
101713	12:56	1	f.ploor	6	1929	3
101713	12:56	1	f.vood	7	2993	3
101713	12:56	1	f.thweed	8	2895	5
101713	12:56	1	f.floob	9	2346	1
101713	12:56	1	f.krafe	10	3721	5
101713	12:56	1	f.yooze	11	2243	4
101713	12:56	1	f.kroog	12	2279	2
101713	12:56	1	f.thwote	13	6025	5
101713	12:56	1	f.twope	14	2919	5
101713	12:56	1	f.kwose	15	2056	6
101713	12:56	1	f.yote	16	1996	5
101713	12:56	1	f.kweem	17	4298	7
101713	12:56	1	f.swage	18	2796	5
101713	12:56	1	f.thague	19	2355	2
101713	12:56	1	f.spape	20	2305	2
101713	12:56	1	f.trague	21	2892	4
101713	12:56	1	f.nabe	22	2678	1
101713	12:56	1	f.jague	23	1961	1
101713	12:56	1	f.brare	24	1952	2
101713	12:56	1	f.shrathe	25	4088	4
101713	12:56	1	f.breesh	26	2635	5
101713	12:56	1	f.swooze	27	2623	4
101713	12:56	1	f.dwofe	28	2997	3
101713	12:56	1	f.dweeze	29	2635	3
101713	12:56	1	f.tweem	30	3015	4
101713	12:56	1	f.cheeb	31	2197	1
101713	12:56	1	f.brashe	32	3507	4
101713	12:56	1	f.skeef	33	2413	2
101713	12:56	1	f.yogue	34	2938	6
101713	12:56	1	f.shrome	35	4635	6
101713	12:56	1	f.gwathe	36	2864	5
101713	12:56	1	f.dooch	37	2035	1
101713	12:56	1	f.chole	38	3080	7
101713	12:56	1	f.thone	39	3091	6
101713	12:56	1	f.shrase	40	3693	4
101713	12:56	1	f.dwoze	41	2696	4
101713	12:56	1	f.flove	42	1906	4
101713	12:56	1	f.gween	43	3340	5
101713	12:56	1	f.thoosh	44	3628	5
101713	12:56	1	f.smafe	45	2081	1
101713	12:56	1	f.kwooge	46	3268	1
101713	12:56	1	f.blashe	47	1695	1
101713	12:56	1	f.smathe	48	2881	2
101713	12:56	1	f.toove	49	1972	4
101713	12:56	1	f.twogue	50	2275	4
101713	12:56	1	f.pashe	51	2742	6
101713	12:56	1	f.frothe	52	2295	6
101713	12:56	1	f.throbe	53	2160	4
101713	12:56	1	f.meef	54	2023	1
101713	12:56	1	f.neeth	55	2596	2
101713	12:56	1	f.mathe	56	6138	4
101713	12:56	1	f.brogue	57	2508	4
101713	12:56	1	f.peeb	58	2846	6
101713	12:56	1	f.stoshe	59	3802	5
101713	12:56	1	f.stooch	60	4776	5
101713	12:56	1	r.desire	1	4568	7
101713	12:56	1	r.banner	2	3008	5
101713	12:56	1	r.termite	3	2478	1
101713	12:56	1	r.moment	4	1904	9
101713	12:56	1	r.nun	5	3394	6
101713	12:56	1	r.defiant	6	4343	2
101713	12:56	1	r.finger	7	1729	5
101713	12:56	1	r.circle	8	1881	5
101713	12:56	1	r.slime	9	4996	3
101713	12:56	1	r.earth	10	2227	6
101713	12:56	1	r.pet	11	1767	8
101713	12:56	1	r.reward	12	1622	9
101713	12:56	1	r.tease	13	2251	2
101713	12:56	1	r.killer	14	1599	1
101713	12:56	1	r.toxic	15	1436	1
101713	12:56	1	r.tank	16	1824	5
101713	12:56	1	r.paralysis	17	3541	5
101713	12:56	1	r.troubled	18	1806	2
101713	12:56	1	r.tobacco	19	1484	2
101713	12:56	1	r.gift	20	1750	8
101713	12:56	1	r.fur	21	3158	5
101713	12:56	1	r.dancer	22	1622	7
101713	12:56	1	r.awed	23	2395	6
101713	12:56	1	r.white	24	1521	5
101713	12:56	1	r.prestige	25	2666	8
101713	12:56	1	r.invest	26	3141	6
101713	12:56	1	r.scar	27	1822	3
101713	12:56	1	r.achievement	28	1723	9
101713	12:56	1	r.poverty	29	2388	1
101713	12:56	1	r.anger	30	1394	1
101713	12:56	1	r.cell	31	1720	5
101713	12:56	1	r.bench	32	1648	5
101713	12:56	1	r.nonchalant	33	2045	5
101713	12:56	1	r.icebox	34	1584	5
101713	12:56	1	r.hungry	35	2406	6
101713	12:56	1	r.vision	36	2588	5
101713	12:56	1	r.louse	37	2115	5
101713	12:56	1	r.carefree	38	2780	8
101713	12:56	1	r.lazy	39	1746	8
101713	12:56	1	r.liberty	40	2482	7
101713	12:56	1	r.bereavement	41	2605	5
101713	12:56	1	r.passage	42	1722	5
101713	12:56	1	r.evil	43	1508	1
101713	12:56	1	r.death	44	1310	1
101713	12:56	1	r.fearful	45	1118	1
101713	12:56	1	r.crutch	46	2823	4
101713	12:56	1	r.lottery	47	2228	8
101713	12:56	1	r.imagine	48	1953	9
101713	12:56	1	r.millionaire	49	1433	9
101713	12:56	1	r.crash	50	1701	1
101713	12:56	1	r.useless	51	1606	1
101713	12:56	1	r.lost	52	924	1
101713	12:56	1	r.stool	53	1453	5
101713	12:56	1	r.runner	54	1312	5
101713	12:56	1	r.pressure	55	1969	2
101713	12:56	1	r.maggot	56	1424	1
101713	12:56	1	r.reserved	57	1669	5
101713	12:56	1	r.insolent	58	2392	5
101713	12:56	1	r.star	59	1254	5
101713	12:56	1	r.rat	60	928	5
101713	12:56	1	howtype	1	11480	4
101713	13:58	1	speed	1	2830	53
101713	13:58	1	error	2	1720	98
101713	13:58	1	whichhand	3	6873	Right
101713	13:58	1	f.tweeve	1	6718	6
101713	13:58	1	f.smoon	2	5808	7
101713	13:58	1	f.sleese	3	3271	5
101713	13:58	1	f.skoog	4	2946	3
101713	13:58	1	f.dwoze	5	2490	3
101713	13:58	1	f.dweese	6	2597	5
101713	13:58	1	f.keeb	7	2059	4
101713	13:58	1	f.prache	8	2751	8
101713	13:58	1	f.ploosh	9	2695	8
101713	13:58	1	f.stoosh	10	2361	6
101713	13:58	1	f.glale	11	3752	7
101713	13:58	1	f.shreem	12	2488	4
101713	13:58	1	f.throde	13	4163	8
101713	13:58	1	f.thrache	14	2250	5
101713	13:58	1	f.kwague	15	3550	3
101713	13:58	1	f.seesh	16	2711	4
101713	13:58	1	f.froop	17	2272	2
101713	13:58	1	f.sneesh	18	2027	3
101713	13:58	1	f.gleeg	19	2751	5
101713	13:58	1	f.mofe	20	3231	6
101713	13:58	1	f.sague	21	3500	7
101713	13:58	1	f.stoob	22	1918	4
101713	13:58	1	f.gloosh	23	1896	3
101713	13:58	1	f.treek	24	2761	5
101713	13:58	1	f.smeel	25	1961	5
101713	13:58	1	f.twase	26	3704	3
101713	13:58	1	f.soosh	27	3890	3
101713	13:58	1	f.kleesh	28	2581	5
101713	13:58	1	f.throshe	29	2764	4
101713	13:58	1	f.glashe	30	3667	2
101713	13:58	1	f.vage	31	3959	5
101713	13:58	1	f.froge	32	4158	4
101713	13:58	1	f.kwase	33	2870	2
101713	13:58	1	f.thweep	34	3121	5
101713	13:58	1	f.greesh	35	2619	2
101713	13:58	1	f.twame	36	4680	2
101713	13:58	1	f.kreeth	37	2236	4
101713	13:58	1	f.plake	38	2768	7
101713	13:58	1	f.shrooze	39	2239	5
101713	13:58	1	f.swoom	40	2980	8
101713	13:58	1	f.freeb	41	2539	5
101713	13:58	1	f.theeth	42	2763	4
101713	13:58	1	f.dwoom	43	3299	7
101713	13:58	1	f.threef	44	5069	5
101713	13:58	1	f.zake	45	2993	6
101713	13:58	1	f.flogue	46	2191	7
101713	13:58	1	f.thwofe	47	5285	5
101713	13:58	1	f.mafe	48	2601	3
101713	13:58	1	f.dabe	49	2383	4
101713	13:58	1	f.zabe	50	2390	6
101713	13:58	1	f.kloop	51	2860	7
101713	13:58	1	f.shreeze	52	1831	5
101713	13:58	1	f.froof	53	3316	5
101713	13:58	1	f.drooze	54	4005	6
101713	13:58	1	f.slode	55	2796	3
101713	13:58	1	f.fofe	56	2578	4
101713	13:58	1	f.feeb	57	2032	4
101713	13:58	1	f.threeth	58	2445	4
101713	13:58	1	f.thwoove	59	2841	7
101713	13:58	1	f.vape	60	1853	7
101713	13:58	1	r.statue	1	9076	6
101713	13:58	1	r.sunrise	2	2713	6
101713	13:58	1	r.punishment	3	5074	5
101713	13:58	1	r.trust	4	5662	6
101713	13:58	1	r.cannon	5	2474	8
101713	13:58	1	r.virtue	6	2870	6
101713	13:58	1	r.profit	7	3633	4
101713	13:58	1	r.obey	8	2862	5
101713	13:58	1	r.assassin	9	2729	7
101713	13:58	1	r.arrogant	10	2466	5
101713	13:58	1	r.water	11	2933	6
101713	13:58	1	r.mobility	12	2094	3
101713	13:58	1	r.lottery	13	2760	6
101713	13:58	1	r.world	14	2127	4
101713	13:58	1	r.dress	15	1927	3
101713	13:58	1	r.satisfied	16	3056	7
101713	13:58	1	r.bless	17	2372	8
101713	13:58	1	r.danger	18	2315	6
101713	13:58	1	r.basket	19	4324	6
101713	13:58	1	r.aroused	20	3318	4
101713	13:58	1	r.peace	21	3304	6
101713	13:58	1	r.truth	22	1946	7
101713	13:58	1	r.pollute	23	3050	6
101713	13:58	1	r.item	24	1990	2
101713	13:58	1	r.fear	25	2660	3
101713	13:58	1	r.scalding	26	2720	6
101713	13:58	1	r.insecure	27	2689	6
101713	13:58	1	r.intruder	28	2051	3
101713	13:58	1	r.frustrated	29	2999	7
101713	13:58	1	r.secure	30	2821	3
101713	13:58	1	r.blind	31	3034	6
101713	13:58	1	r.salute	32	2367	8
101713	13:58	1	r.inhabitant	33	3551	8
101713	13:58	1	r.kerosene	34	2375	7
101713	13:58	1	r.afraid	35	4190	4
101713	13:58	1	r.despise	36	2373	6
101713	13:58	1	r.corner	37	2572	2
101713	13:58	1	r.reward	38	4131	5
101713	13:58	1	r.cheer	39	2964	3
101713	13:58	1	r.progress	40	4356	7
101713	13:58	1	r.foot	41	2300	6
101713	13:58	1	r.doctor	42	2110	6
101713	13:58	1	r.neurotic	43	2023	8
101713	13:58	1	r.gymnast	44	2364	8
101713	13:58	1	r.house	45	2171	6
101713	13:58	1	r.dreadful	46	2530	6
101713	13:58	1	r.measles	47	4595	7
101713	13:58	1	r.hammer	48	2802	3
101713	13:58	1	r.outdoors	49	2648	7
101713	13:58	1	r.happy	50	1924	4
101713	13:58	1	r.beautiful	51	3844	8
101713	13:58	1	r.trauma	52	3929	6
101713	13:58	1	r.traitor	53	2410	3
101713	13:58	1	r.riot	54	2711	7
101713	13:58	1	r.nightmare	55	2921	8
101713	13:58	1	r.bored	56	2034	3
101713	13:58	1	r.flower	57	3158	5
101713	13:58	1	r.razor	58	2054	6
101713	13:58	1	r.rain	59	3586	2
101713	13:58	1	r.fatigued	60	2625	5
101713	13:58	1	howtype	1	18308	5
101813	11:59	1	speed	1	3175	24
101813	11:59	1	error	2	2030	83
101813	11:59	1	whichhand	3	8779	right
101813	11:59	1	f.proot	1	10279	1
101813	11:59	1	f.klafe	2	6588	2
101813	11:59	1	f.thrage	3	5293	5
101813	11:59	1	f.smoob	4	5303	3
101813	11:59	1	f.treek	5	3090	7
101813	11:59	1	f.kreeg	6	5765	6
101813	11:59	1	f.skeeve	7	7053	3
101813	11:59	1	f.thwoosh	8	2883	9
101813	11:59	1	f.yague	9	3318	9
101813	11:59	1	f.flooge	10	2167	1
101813	11:59	1	f.yoze	11	6046	9
101813	11:59	1	f.zote	12	3044	8
101813	11:59	1	f.spathe	13	2832	1
101813	11:59	1	f.thweek	14	5956	9
101813	11:59	1	f.theeg	15	3165	1
101813	11:59	1	f.kwooze	16	4605	9
101813	11:59	1	f.smoove	17	1955	9
101813	11:59	1	f.preek	18	3003	3
101813	11:59	1	f.sneeve	19	3601	3
101813	11:59	1	f.shache	20	5016	1
101813	11:59	1	f.chogue	21	4574	1
101813	11:59	1	f.geeth	22	2397	9
101813	11:59	1	f.shabe	23	5164	2
101813	11:59	1	f.glache	24	7091	9
101813	11:59	1	f.spote	25	4063	2
101813	11:59	1	f.fooch	26	5715	1
101813	11:59	1	f.kloshe	27	3517	1
101813	11:59	1	f.stoof	28	2903	1
101813	11:59	1	f.noog	29	2457	1
101813	11:59	1	f.drage	30	4837	1
101813	11:59	1	f.teef	31	3810	7
101813	11:59	1	f.thoot	32	3072	2
101813	11:59	1	f.flave	33	6075	1
101813	11:59	1	f.yoche	34	2575	1
101813	11:59	1	f.froof	35	2566	9
101813	11:59	1	f.gloshe	36	5158	1
101813	11:59	1	f.choog	37	3326	9
101813	11:59	1	f.shrove	38	4839	9
101813	11:59	1	f.thook	39	3308	6
101813	11:59	1	f.steef	40	2542	1
101813	11:59	1	f.yafe	41	3046	3
101813	11:59	1	f.zoog	42	5042	2
101813	11:59	1	f.woog	43	3055	9
101813	11:59	1	f.sweese	44	1587	9
101813	11:59	1	f.pleeve	45	1946	9
101813	11:59	1	f.krabe	46	2233	5
101813	11:59	1	f.plafe	47	4470	1
101813	11:59	1	f.slobe	48	2178	1
101813	11:59	1	f.broor	49	2040	1
101813	11:59	1	f.swave	50	2589	9
101813	11:59	1	f.gwate	51	4683	5
101813	11:59	1	f.theep	52	2206	2
101813	11:59	1	f.kwoge	53	3852	9
101813	11:59	1	f.swothe	54	2649	9
101813	11:59	1	f.theeb	55	2437	1
101813	11:59	1	f.sheech	56	2441	1
101813	11:59	1	f.gleek	57	3422	1
101813	11:59	1	f.skave	58	3596	9
101813	11:59	1	f.floge	59	2530	1
101813	11:59	1	f.thweer	60	2218	5
101813	11:59	1	r.adventure	1	9865	9
101813	11:59	1	r.smallpox	2	2678	1
101813	11:59	1	r.utensil	3	4096	5
101813	11:59	1	r.obesity	4	2011	1
101813	11:59	1	r.overcast	5	2688	1
101813	11:59	1	r.ship	6	4467	7
101813	11:59	1	r.liberty	7	2143	9
101813	11:59	1	r.hostile	8	1702	1
101813	11:59	1	r.hand	9	2536	5
101813	11:59	1	r.slush	10	5393	2
101813	11:59	1	r.white	11	2807	9
101813	11:59	1	r.smooth	12	3278	9
101813	11:59	1	r.engaged	13	1376	9
101813	11:59	1	r.crutch	14	2791	1
101813	11:59	1	r.medicine	15	2165	9
101813	11:59	1	r.enjoyment	16	1068	9
101813	11:59	1	r.hide	17	3175	5
101813	11:59	1	r.scholar	18	2223	9
101813	11:59	1	r.overwhelmed	19	2316	1
101813	11:59	1	r.allergy	20	2268	1
101813	11:59	1	r.errand	21	3432	5
101813	11:59	1	r.woman	22	2445	9
101813	11:59	1	r.malice	23	2249	1
101813	11:59	1	r.promotion	24	1581	9
101813	11:59	1	r.party	25	2475	9
101813	11:59	1	r.modest	26	2214	9
101813	11:59	1	r.carefree	27	1227	9
101813	11:59	1	r.nipple	28	1976	9
101813	11:59	1	r.sin	29	2830	1
101813	11:59	1	r.waterfall	30	2418	9
101813	11:59	1	r.highway	31	3584	5
101813	11:59	1	r.seat	32	3935	5
101813	11:59	1	r.shadow	33	2568	9
101813	11:59	1	r.disgusted	34	2471	1
101813	11:59	1	r.venom	35	1882	1
101813	11:59	1	r.thrill	36	1917	9
101813	11:59	1	r.cuddle	37	1398	9
101813	11:59	1	r.patient	38	4443	5
101813	11:59	1	r.outstanding	39	3240	9
101813	11:59	1	r.divorce	40	2028	1
101813	11:59	1	r.lucky	41	2113	9
101813	11:59	1	r.kiss	42	1386	9
101813	11:59	1	r.scorn	43	2368	1
101813	11:59	1	r.adult	44	2447	9
101813	11:59	1	r.sinful	45	2123	1
101813	11:59	1	r.flabby	46	2500	1
101813	11:59	1	r.hinder	47	2854	5
101813	11:59	1	r.jewel	48	2106	9
101813	11:59	1	r.measles	49	2364	1
101813	11:59	1	r.astronaut	50	2635	5
101813	11:59	1	r.radiator	51	1736	5
101813	11:59	1	r.progress	52	2992	9
101813	11:59	1	r.anguished	53	2622	1
101813	11:59	1	r.merry	54	1788	9
101813	11:59	1	r.detail	55	4258	5
101813	11:59	1	r.astonished	56	7678	9
101813	11:59	1	r.python	57	4211	5
101813	11:59	1	r.athletics	58	1721	9
101813	11:59	1	r.snob	59	1610	1
101813	11:59	1	r.admired	60	1887	9
101813	11:59	1	howtype	1	18927	3
101813	13:57	1	speed	1	3282	44
101813	13:57	1	error	2	1941	100
101813	13:57	1	whichhand	3	12806	Left
101813	13:57	1	f.zate	1	15254	7
101813	13:57	1	f.snane	2	10118	3
101813	13:57	1	f.speege	3	12787	8
101813	13:57	1	f.yone	4	5566	4
101813	13:57	1	f.froove	5	6030	7
101813	13:57	1	f.fogue	6	10660	3
101813	13:57	1	f.thague	7	12554	2
101813	13:57	1	f.bloshe	8	4893	6
101813	13:57	1	f.brothe	9	6192	5
101813	13:57	1	f.floof	10	4287	8
101813	13:57	1	f.snoche	11	15826	3
101813	13:57	1	f.lole	12	4292	9
101813	13:57	1	f.smale	13	12965	4
101813	13:57	1	f.klafe	14	5825	5
101813	13:57	1	f.leech	15	5991	2
101813	13:57	1	f.swave	16	7054	7
101813	13:57	1	f.kwooze	17	4715	3
101813	13:57	1	f.flave	18	15797	7
101813	13:57	1	f.kabe	19	19815	4
101813	13:57	1	f.pathe	20	4643	6
101813	13:57	1	f.gleesh	21	9432	3
101813	13:57	1	f.skathe	22	5079	6
101813	13:57	1	f.zeeg	23	10698	3
101813	13:57	1	f.fofe	24	11799	7
101813	13:57	1	f.yoop	25	4456	8
101813	13:57	1	f.veeve	26	4941	5
101813	13:57	1	f.thwoose	27	6446	6
101813	13:57	1	f.slashe	28	2812	3
101813	13:57	1	f.ploke	29	3937	6
101813	13:57	1	f.skeeth	30	10441	6
101813	13:57	1	f.kweeze	31	2648	2
101813	13:57	1	f.vave	32	4428	6
101813	13:57	1	f.kwade	33	4426	7
101813	13:57	1	f.gwape	34	4207	7
101813	13:57	1	f.thwooth	35	3141	3
101813	13:57	1	f.tweech	36	4390	1
101813	13:57	1	f.twoove	37	3253	3
101813	13:57	1	f.twoom	38	7473	8
101813	13:57	1	f.shrabe	39	7182	4
101813	13:57	1	f.smone	40	6198	4
101813	13:57	1	f.slase	41	3077	8
101813	13:57	1	f.zore	42	12440	2
101813	13:57	1	f.blooth	43	2912	3
101813	13:57	1	f.thrame	44	2705	8
101813	13:57	1	f.gwone	45	2835	3
101813	13:57	1	f.kleeg	46	4247	7
101813	13:57	1	f.twabe	47	5604	2
101813	13:57	1	f.smooge	48	11259	5
101813	13:57	1	f.drage	49	3129	3
101813	13:57	1	f.preep	50	2810	8
101813	13:57	1	f.breeb	51	2647	7
101813	13:57	1	f.cheeg	52	6411	8
101813	13:57	1	f.chome	53	4162	6
101813	13:57	1	f.theeg	54	2978	4
101813	13:57	1	f.twose	55	5849	5
101813	13:57	1	f.doche	56	3638	3
101813	13:57	1	f.kleed	57	4267	7
101813	13:57	1	f.foog	58	4055	2
101813	13:57	1	f.thweeve	59	4603	6
101813	13:57	1	f.theek	60	12490	6
101813	13:57	1	r.mucus	1	9336	3
101813	13:57	1	r.modest	2	5332	8
101813	13:57	1	r.hit	3	3637	4
101813	13:57	1	r.chocolate	4	2170	9
101813	13:57	1	r.obscene	5	1601	2
101813	13:57	1	r.consoled	6	2655	5
101813	13:57	1	r.foot	7	4649	5
101813	13:57	1	r.disgusted	8	2679	3
101813	13:57	1	r.stench	9	1474	4
101813	13:57	1	r.depressed	10	1349	3
101813	13:57	1	r.slow	11	2364	5
101813	13:57	1	r.adorable	12	2060	8
101813	13:57	1	r.blasphemy	13	2927	4
101813	13:57	1	r.cozy	14	3448	6
101813	13:57	1	r.mold	15	2324	2
101813	13:57	1	r.overwhelmed	16	1637	3
101813	13:57	1	r.engine	17	1577	5
101813	13:57	1	r.derelict	18	3960	3
101813	13:57	1	r.pistol	19	2383	5
101813	13:57	1	r.fantasy	20	2654	6
101813	13:57	1	r.cockroach	21	1450	4
101813	13:57	1	r.excellence	22	1413	9
101813	13:57	1	r.cash	23	1914	9
101813	13:57	1	r.rage	24	1515	3
101813	13:57	1	r.secure	25	2828	2
101813	13:57	1	r.voyage	26	6025	5
101813	13:57	1	r.flower	27	10918	8
101813	13:57	1	r.surgery	28	1731	2
101813	13:57	1	r.death	29	1859	1
101813	13:57	1	r.seasick	30	5094	2
101813	13:57	1	r.outstanding	31	2976	8
101813	13:57	1	r.liberty	32	2591	7
101813	13:57	1	r.tragedy	33	3574	2
101813	13:57	1	r.thought	34	1869	5
101813	13:57	1	r.building	35	2816	7
101813	13:57	1	r.industry	36	2109	7
101813	13:57	1	r.pressure	37	1559	3
101813	13:57	1	r.FALSE	38	2550	1
101813	13:57	1	r.phase	39	3966	5
101813	13:57	1	r.hairdryer	40	2326	6
101813	13:57	1	r.kind	41	1695	9
101813	13:57	1	r.travel	42	2616	7
101813	13:57	1	r.rock	43	2133	2
101813	13:57	1	r.dead	44	3982	3
101813	13:57	1	r.intimate	45	2717	8
101813	13:57	1	r.shy	46	1998	4
101813	13:57	1	r.filth	47	2860	1
101813	13:57	1	r.excitement	48	2735	9
101813	13:57	1	r.news	49	7640	4
101813	13:57	1	r.wealthy	50	13038	7
101813	13:57	1	r.material	51	5086	4
101813	13:57	1	r.tidy	52	1569	8
101813	13:57	1	r.inspire	53	1608	7
101813	13:57	1	r.leisurely	54	4782	6
101813	13:57	1	r.natural	55	2269	5
101813	13:57	1	r.torture	56	1569	1
101813	13:57	1	r.caress	57	2335	8
101813	13:57	1	r.lie	58	2655	2
101813	13:57	1	r.body	59	1772	5
101813	13:57	1	r.village	60	1699	5
101813	13:57	1	howtype	1	10234	6
101813	14:22	1	speed	1	2798	58
101813	14:22	1	error	2	2065	100
101813	14:22	1	whichhand	3	9253	Right
101813	14:22	1	r.bed	1	5924	9
101813	14:22	1	r.bathroom	2	3166	6
101813	14:22	1	r.blossom	3	4358	9
101813	14:22	1	r.adorable	4	5886	9
101813	14:22	1	r.peace	5	1778	9
101813	14:22	1	r.cuddle	6	2049	9
101813	14:22	1	r.pancakes	7	3332	4
101813	14:22	1	r.warmth	8	1973	9
101813	14:22	1	r.farm	9	3364	5
101813	14:22	1	r.capable	10	2940	9
101813	14:22	1	r.fragrance	11	2572	9
101813	14:22	1	r.delayed	12	2948	3
101813	14:22	1	r.skull	13	2596	2
101813	14:22	1	r.cannon	14	1594	2
101813	14:22	1	r.fever	15	2151	2
101813	14:22	1	r.wagon	16	3110	5
101813	14:22	1	r.glacier	17	1681	5
101813	14:22	1	r.market	18	1587	5
101813	14:22	1	r.pleasure	19	2521	9
101813	14:22	1	r.dump	20	4738	1
101813	14:22	1	r.cockroach	21	1668	1
101813	14:22	1	r.field	22	1727	5
101813	14:22	1	r.father	23	2303	9
101813	14:22	1	r.ambition	24	1800	9
101813	14:22	1	r.sin	25	1894	1
101813	14:22	1	r.lust	26	6200	6
101813	14:22	1	r.famous	27	2447	7
101813	14:22	1	r.headlight	28	1923	5
101813	14:22	1	r.beggar	29	2444	2
101813	14:22	1	r.god	30	2568	9
101813	14:22	1	r.kerchief	31	3551	5
101813	14:22	1	r.salad	32	1304	5
101813	14:22	1	r.distressed	33	1497	2
101813	14:22	1	r.iron	34	2419	5
101813	14:22	1	r.madman	35	1976	2
101813	14:22	1	r.impressed	36	2206	9
101813	14:22	1	r.imagine	37	1060	9
101813	14:22	1	r.lottery	38	1375	9
101813	14:22	1	r.stink	39	2110	1
101813	14:22	1	r.bowl	40	2983	5
101813	14:22	1	r.terrific	41	1454	9
101813	14:22	1	r.taxi	42	1585	5
101813	14:22	1	r.thought	43	1975	5
101813	14:22	1	r.obnoxious	44	1374	1
101813	14:22	1	r.evil	45	853	1
101813	14:22	1	r.plane	46	1097	5
101813	14:22	1	r.nature	47	1106	9
101813	14:22	1	r.dog	48	987	9
101813	14:22	1	r.golfer	49	986	5
101813	14:22	1	r.radio	50	1264	9
101813	14:22	1	r.execution	51	1298	1
101813	14:22	1	r.shamed	52	1236	1
101813	14:22	1	r.irritate	53	1000	1
101813	14:22	1	r.hurricane	54	1181	1
101813	14:22	1	r.mischief	55	2636	5
101813	14:22	1	r.selfish	56	1048	1
101813	14:22	1	r.cuisine	57	1684	9
101813	14:22	1	r.cord	58	1398	5
101813	14:22	1	r.cork	59	1883	5
101813	14:22	1	r.name	60	1430	5
101813	14:22	1	f.gwale	1	7480	5
101813	14:22	1	f.spate	2	4981	5
101813	14:22	1	f.sheeg	3	1828	5
101813	14:22	1	f.kwoshe	4	2704	6
101813	14:22	1	f.gwote	5	1611	4
101813	14:22	1	f.kroge	6	1840	3
101813	14:22	1	f.neesh	7	2244	6
101813	14:22	1	f.threek	8	1720	5
101813	14:22	1	f.yove	9	1929	6
101813	14:22	1	f.chole	10	6217	4
101813	14:22	1	f.drathe	11	1640	2
101813	14:22	1	f.flofe	12	2260	7
101813	14:22	1	f.spoog	13	1847	4
101813	14:22	1	f.jobe	14	2339	6
101813	14:22	1	f.smague	15	4683	3
101813	14:22	1	f.yobe	16	2758	5
101813	14:22	1	f.neege	17	1647	5
101813	14:22	1	f.sloob	18	2353	4
101813	14:22	1	f.thathe	19	1713	3
101813	14:22	1	f.vake	20	1354	5
101813	14:22	1	f.spage	21	1562	6
101813	14:22	1	f.spague	22	2233	5
101813	14:22	1	f.theed	23	2773	4
101813	14:22	1	f.thade	24	1621	4
101813	14:22	1	f.foof	25	1753	7
101813	14:22	1	f.dweer	26	1817	3
101813	14:22	1	f.thrake	27	1502	4
101813	14:22	1	f.swache	28	1264	5
101813	14:22	1	f.brare	29	1291	6
101813	14:22	1	f.slooge	30	2516	4
101813	14:22	1	f.kwooch	31	1526	3
101813	14:22	1	f.smobe	32	2078	5
101813	14:22	1	f.plathe	33	1961	6
101813	14:22	1	f.nooth	34	1040	6
101813	14:22	1	f.speem	35	1356	4
101813	14:22	1	f.floof	36	4723	6
101813	14:22	1	f.chage	37	2037	5
101813	14:22	1	f.thwoshe	38	3218	4
101813	14:22	1	f.klague	39	1111	5
101813	14:22	1	f.bave	40	1104	5
101813	14:22	1	f.poom	41	1217	6
101813	14:22	1	f.drooze	42	2126	4
101813	14:22	1	f.bleel	43	999	3
101813	14:22	1	f.kwache	44	1124	5
101813	14:22	1	f.twooch	45	1637	3
101813	14:22	1	f.smoshe	46	1889	4
101813	14:22	1	f.stothe	47	1667	5
101813	14:22	1	f.shrave	48	1278	4
101813	14:22	1	f.gathe	49	1129	6
101813	14:22	1	f.yoche	50	1217	5
101813	14:22	1	f.dweel	51	4285	5
101813	14:22	1	f.droof	52	1817	6
101813	14:22	1	f.weeg	53	1333	4
101813	14:22	1	f.sleesh	54	1206	5
101813	14:22	1	f.skoove	55	1067	3
101813	14:22	1	f.vood	56	1550	3
101813	14:22	1	f.pleel	57	1454	5
101813	14:22	1	f.chobe	58	1569	3
101813	14:22	1	f.mothe	59	1880	5
101813	14:22	1	f.kreech	60	1666	5
101813	14:22	1	howtype	1	23355	6
102113	09:54	1	speed	1	14734	49
102113	09:54	1	error	2	2318	91
102113	09:54	1	whichhand	3	6777	Right
102113	09:54	1	r.frustrated	1	26031	1
102113	09:54	1	r.yacht	2	6604	3
102113	09:54	1	r.tamper	3	3851	2
102113	09:54	1	r.daylight	4	4071	8
102113	09:54	1	r.despise	5	8706	2
102113	09:54	1	r.slush	6	5126	4
102113	09:54	1	r.germs	7	2919	2
102113	09:54	1	r.penalty	8	7129	4
102113	09:54	1	r.soft	9	1980	7
102113	09:54	1	r.narcotic	10	3490	4
102113	09:54	1	r.person	11	1549	7
102113	09:54	1	r.computer	12	1468	5
102113	09:54	1	r.punishment	13	2136	2
102113	09:54	1	r.graduate	14	1856	9
102113	09:54	1	r.mucus	15	1436	1
102113	09:54	1	r.industry	16	2760	4
102113	09:54	1	r.scandal	17	887	4
102113	09:54	1	r.banner	18	2297	5
102113	09:54	1	r.hell	19	2802	2
102113	09:54	1	r.curious	20	1961	9
102113	09:54	1	r.powerful	21	1496	9
102113	09:54	1	r.alert	22	1673	8
102113	09:54	1	r.pasta	23	1492	7
102113	09:54	1	r.triumphant	24	1949	9
102113	09:54	1	r.killer	25	3550	3
102113	09:54	1	r.spanking	26	48526	2
102113	09:54	1	r.cliff	27	2215	5
102113	09:54	1	r.dirt	28	2068	5
102113	09:54	1	r.excellence	29	2063	7
102113	09:54	1	r.silk	30	1994	7
102113	09:54	1	r.breast	31	3055	9
102113	09:54	1	r.injury	32	1417	3
102113	09:54	1	r.dream	33	1713	9
102113	09:54	1	r.answer	34	3472	8
102113	09:54	1	r.sleep	35	1301	9
102113	09:54	1	r.chair	36	1741	6
102113	09:54	1	r.delayed	37	1902	4
102113	09:54	1	r.lump	38	1704	2
102113	09:54	1	r.knowledge	39	1986	9
102113	09:54	1	r.despairing	40	2193	2
102113	09:54	1	r.crown	41	1581	4
102113	09:54	1	r.devil	42	1317	2
102113	09:54	1	r.terrified	43	1173	4
102113	09:54	1	r.grass	44	2253	6
102113	09:54	1	r.danger	45	2232	4
102113	09:54	1	r.perfection	46	2340	7
102113	09:54	1	r.diver	47	2957	5
102113	09:54	1	r.disturb	48	2045	4
102113	09:54	1	r.putrid	49	1609	3
102113	09:54	1	r.surgery	50	799	3
102113	09:54	1	r.identity	51	1427	5
102113	09:54	1	r.sissy	52	1656	2
102113	09:54	1	r.detached	53	716	2
102113	09:54	1	r.city	54	2268	5
102113	09:54	1	r.leprosy	55	2208	1
102113	09:54	1	r.hurt	56	1141	2
102113	09:54	1	r.scurvy	57	1157	3
102113	09:54	1	r.whore	58	1397	2
102113	09:54	1	r.troubled	59	1034	2
102113	09:54	1	r.table	60	2150	5
102113	09:54	1	f.kreer	1	10491	5
102113	09:54	1	f.floosh	2	3489	6
102113	09:54	1	f.yose	3	2355	5
102113	09:54	1	f.proshe	4	1852	5
102113	09:54	1	f.twole	5	976	5
102113	09:54	1	f.snooth	6	2783	4
102113	09:54	1	f.klood	7	901	4
102113	09:54	1	f.smeege	8	1454	4
102113	09:54	1	f.soog	9	1161	4
102113	09:54	1	f.gween	10	1033	4
102113	09:54	1	f.meesh	11	1293	3
102113	09:54	1	f.gloke	12	1262	3
102113	09:54	1	f.foof	13	2337	7
102113	09:54	1	f.choob	14	1266	5
102113	09:54	1	f.vade	15	2148	5
102113	09:54	1	f.glashe	16	1140	6
102113	09:54	1	f.skofe	17	1076	5
102113	09:54	1	f.sweese	18	1135	4
102113	09:54	1	f.yoon	19	1022	4
102113	09:54	1	f.yeeze	20	739	5
102113	09:54	1	f.trooge	21	1563	4
102113	09:54	1	f.shreef	22	914	5
102113	09:54	1	f.yobe	23	739	4
102113	09:54	1	f.tweege	24	456	5
102113	09:54	1	f.zore	25	1091	4
102113	09:54	1	f.gleech	26	1262	3
102113	09:54	1	f.tweesh	27	2142	2
102113	09:54	1	f.klole	28	927	3
102113	09:54	1	f.froosh	29	1327	4
102113	09:54	1	f.vobe	30	1302	5
102113	09:54	1	f.smeef	31	1961	5
102113	09:54	1	f.feech	32	855	5
102113	09:54	1	f.dwooge	33	1755	4
102113	09:54	1	f.dweer	34	2410	3
102113	09:54	1	f.kweese	35	2528	2
102113	09:54	1	f.tweeth	36	2062	1
102113	09:54	1	f.sloof	37	1538	5
102113	09:54	1	f.snone	38	2538	3
102113	09:54	1	f.zoop	39	2651	6
102113	09:54	1	f.shroot	40	1631	5
102113	09:54	1	f.frooge	41	1226	5
102113	09:54	1	f.thween	42	1879	7
102113	09:54	1	f.mashe	43	1201	5
102113	09:54	1	f.droche	44	2255	3
102113	09:54	1	f.swove	45	1060	4
102113	09:54	1	f.kloof	46	1766	4
102113	09:54	1	f.theeth	47	669	5
102113	09:54	1	f.thoof	48	1000	3
102113	09:54	1	f.dware	49	1020	6
102113	09:54	1	f.shreeb	50	682	5
102113	09:54	1	f.throosh	51	1468	4
102113	09:54	1	f.skoose	52	1175	4
102113	09:54	1	f.plafe	53	1228	5
102113	09:54	1	f.speeve	54	769	5
102113	09:54	1	f.zofe	55	1999	7
102113	09:54	1	f.wathe	56	1614	4
102113	09:54	1	f.sleese	57	1491	5
102113	09:54	1	f.freeg	58	1629	4
102113	09:54	1	f.kweeze	59	1153	3
102113	09:54	1	f.zate	60	1424	7
102113	09:54	1	howtype	1	8811	4
102113	11:06	1	speed	1	9457	44
102113	11:07	1	speed	1	2512	44
102113	11:07	1	error	2	2631	95
102113	11:07	1	whichhand	3	4029	right
102113	11:07	1	r.employment	1	3156	5
102113	11:07	1	r.failure	2	7004	1
102113	11:07	1	r.bastard	3	2124	1
102113	11:07	1	r.scorching	4	1285	1
102113	11:07	1	r.penis	5	2111	5
102113	11:07	1	r.flood	6	1752	1
102113	11:07	1	r.humor	7	2840	9
102113	11:07	1	r.bar	8	3324	8
102113	11:07	1	r.runner	9	2078	5
102113	11:07	1	r.lively	10	2400	9
102113	11:07	1	r.timid	11	2310	5
102113	11:07	1	r.rain	12	2823	6
102113	11:07	1	r.devoted	13	2613	7
102113	11:07	1	r.fire	14	2426	1
102113	11:07	1	r.history	15	1711	1
102113	11:07	1	r.virgin	16	1656	5
102113	11:07	1	r.barrel	17	1755	5
102113	11:07	1	r.rotten	18	1355	1
102113	11:07	1	r.demon	19	1162	1
102113	11:07	1	r.comfort	20	1369	9
102113	11:07	1	r.cyclone	21	3248	5
102113	11:07	1	r.silk	22	1524	9
102113	11:07	1	r.puppy	23	1253	9
102113	11:07	1	r.noose	24	3409	2
102113	11:07	1	r.flower	25	1598	9
102113	11:07	1	r.punishment	26	1148	1
102113	11:07	1	r.identity	27	1547	5
102113	11:07	1	r.shamed	28	2107	1
102113	11:07	1	r.hell	29	1268	1
102113	11:07	1	r.fatigued	30	1007	1
102113	11:07	1	r.mother	31	1381	6
102113	11:07	1	r.time	32	2571	5
102113	11:07	1	r.famous	33	1778	8
102113	11:07	1	r.chocolate	34	1320	9
102113	11:07	1	r.activate	35	2593	5
102113	11:07	1	r.cake	36	1127	9
102113	11:07	1	r.swimmer	37	1359	9
102113	11:07	1	r.trouble	38	1318	1
102113	11:07	1	r.sick	39	1367	1
102113	11:07	1	r.nursery	40	2038	8
102113	11:07	1	r.color	41	2410	9
102113	11:07	1	r.destroy	42	1136	1
102113	11:07	1	r.adult	43	3936	5
102113	11:07	1	r.blind	44	1689	1
102113	11:07	1	r.tomb	45	1059	1
102113	11:07	1	r.tornado	46	1150	1
102113	11:07	1	r.window	47	1438	5
102113	11:07	1	r.dentist	48	1818	8
102113	11:07	1	r.hit	49	1943	1
102113	11:07	1	r.dove	50	1743	5
102113	11:07	1	r.penthouse	51	1710	8
102113	11:07	1	r.scared	52	1119	1
102113	11:07	1	r.ridicule	53	1968	1
102113	11:07	1	r.stool	54	1327	5
102113	11:07	1	r.diploma	55	1647	6
102113	11:07	1	r.lightbulb	56	1459	5
102113	11:07	1	r.brutal	57	1286	1
102113	11:07	1	r.carcass	58	3736	1
102113	11:07	1	r.reptile	59	1265	5
102113	11:07	1	r.alley	60	2612	5
102113	11:07	1	f.kweeze	1	4836	5
102113	11:07	1	f.frache	2	4617	5
102113	11:07	1	f.soob	3	2847	2
102113	11:07	1	f.shooch	4	1395	6
102113	11:07	1	f.smape	5	849	4
102113	11:07	1	f.snooch	6	1628	5
102113	11:07	1	f.kloob	7	1377	1
102113	11:07	1	f.mooth	8	2071	8
102113	11:07	1	f.slage	9	1946	4
102113	11:07	1	f.drote	10	1658	5
102113	11:07	1	f.cheeth	11	2653	8
102113	11:07	1	f.gwame	12	1425	9
102113	11:07	1	f.trague	13	4158	7
102113	11:07	1	f.smame	14	1887	1
102113	11:07	1	f.slame	15	2425	6
102113	11:07	1	f.spobe	16	4806	8
102113	11:07	1	f.boog	17	4725	6
102113	11:07	1	f.gwape	18	1622	7
102113	11:07	1	f.zothe	19	2003	2
102113	11:07	1	f.swome	20	1825	6
102113	11:07	1	f.kreech	21	1790	1
102113	11:07	1	f.gwone	22	5548	6
102113	11:07	1	f.twove	23	4213	9
102113	11:07	1	f.zeeth	24	1682	4
102113	11:07	1	f.gweed	25	1973	2
102113	11:07	1	f.zoshe	26	1668	6
102113	11:07	1	f.koog	27	1575	7
102113	11:07	1	f.dweesh	28	2038	8
102113	11:07	1	f.vood	29	1419	2
102113	11:07	1	f.drooth	30	1431	2
102113	11:07	1	f.throok	31	2068	6
102113	11:07	1	f.thone	32	2095	9
102113	11:07	1	f.thweep	33	2505	7
102113	11:07	1	f.snothe	34	2747	9
102113	11:07	1	f.froche	35	2338	5
102113	11:07	1	f.skeeb	36	2211	6
102113	11:07	1	f.dwoog	37	1488	9
102113	11:07	1	f.dreese	38	1650	1
102113	11:07	1	f.kweeg	39	1422	2
102113	11:07	1	f.peeb	40	2259	5
102113	11:07	1	f.swoche	41	3134	7
102113	11:07	1	f.sneeth	42	2663	2
102113	11:07	1	f.grore	43	2538	5
102113	11:07	1	f.prame	44	1611	6
102113	11:07	1	f.woog	45	1536	7
102113	11:07	1	f.flothe	46	2344	9
102113	11:07	1	f.klape	47	1752	6
102113	11:07	1	f.chobe	48	3135	5
102113	11:07	1	f.ploche	49	1760	7
102113	11:07	1	f.thale	50	1623	4
102113	11:07	1	f.yoog	51	1388	8
102113	11:07	1	f.twose	52	1602	7
102113	11:07	1	f.chooth	53	2544	8
102113	11:07	1	f.gwope	54	2672	9
102113	11:07	1	f.yeet	55	2147	5
102113	11:07	1	f.pleesh	56	2811	5
102113	11:07	1	f.fogue	57	4624	5
102113	11:07	1	f.throge	58	2030	4
102113	11:07	1	f.brooth	59	4059	8
102113	11:07	1	f.skeese	60	3198	5
102113	11:07	1	howtype	1	9747	3
102113	13:04	1	speed	1	4471	61
102113	13:04	1	error	2	4683	100
102113	13:04	1	whichhand	3	12087	Right
102113	13:04	1	f.smaze	1	20006	5
102113	13:04	1	f.slore	2	2522	4
102113	13:04	1	f.dreeze	3	8115	5
102113	13:04	1	f.spave	4	1622	6
102113	13:04	1	f.theek	5	6427	6
102113	13:04	1	f.trafe	6	6033	5
102113	13:04	1	f.skave	7	10031	3
102113	13:04	1	f.vashe	8	3006	7
102113	13:04	1	f.thwooze	9	2228	6
102113	13:04	1	f.kreeb	10	3081	7
102113	13:04	1	f.threep	11	7387	7
102113	13:04	1	f.veep	12	6619	5
102113	13:04	1	f.shrashe	13	4530	4
102113	13:04	1	f.stothe	14	3219	3
102113	13:04	1	f.smeeve	15	11329	6
102113	13:04	1	f.thrashe	16	5853	5
102113	13:04	1	f.drage	17	2954	4
102113	13:04	1	f.broor	18	3906	8
102113	13:04	1	f.toove	19	13612	7
102113	13:04	1	f.doche	20	5213	3
102113	13:04	1	f.trogue	21	2467	4
102113	13:04	1	f.snooge	22	5383	6
102113	13:04	1	f.greeb	23	20718	6
102113	13:04	1	f.kloog	24	5270	3
102113	13:04	1	f.kwooge	25	2826	3
102113	13:04	1	f.shreege	26	4007	4
102113	13:04	1	f.brabe	27	4437	7
102113	13:04	1	f.threek	28	9754	5
102113	13:04	1	f.kwose	29	24517	7
102113	13:04	1	f.dweem	30	3326	6
102113	13:04	1	f.gleef	31	4063	7
102113	13:04	1	f.jashe	32	7554	6
102113	13:04	1	f.yooze	33	2652	4
102113	13:04	1	f.zoop	34	4464	7
102113	13:04	1	f.shreem	35	11108	6
102113	13:04	1	f.gwoose	36	5776	7
102113	13:04	1	f.spathe	37	9496	4
102113	13:04	1	f.preek	38	2236	3
102113	13:04	1	f.yoshe	39	4897	6
102113	13:04	1	f.greege	40	13147	4
102113	13:04	1	f.sneeb	41	1543	3
102113	13:04	1	f.thoog	42	2343	7
102113	13:04	1	f.theen	43	10590	7
102113	13:04	1	f.smeeg	44	2367	4
102113	13:04	1	f.yoot	45	3598	7
102113	13:04	1	f.dobe	46	16021	6
102113	13:04	1	f.thwoze	47	4174	3
102113	13:04	1	f.spoob	48	3094	6
102113	13:04	1	f.drothe	49	1480	4
102113	13:04	1	f.gweege	50	1546	4
102113	13:04	1	f.chothe	51	3162	3
102113	13:04	1	f.pague	52	2321	7
102113	13:04	1	f.blofe	53	5522	3
102113	13:04	1	f.drofe	54	1941	4
102113	13:04	1	f.dwool	55	5237	6
102113	13:04	1	f.tove	56	8715	3
102113	13:04	1	f.sweese	57	5430	7
102113	13:04	1	f.jeesh	58	1788	6
102113	13:04	1	f.gwate	59	6026	5
102113	13:04	1	f.twoof	60	4344	6
102113	13:04	1	r.rejected	1	10232	4
102113	13:04	1	r.barrel	2	1840	5
102113	13:04	1	r.heroin	3	5276	7
102113	13:04	1	r.health	4	1831	8
102113	13:04	1	r.appliance	5	2588	5
102113	13:04	1	r.loser	6	2354	5
102113	13:04	1	r.scissors	7	6794	4
102113	13:04	1	r.reverent	8	2713	9
102113	13:04	1	r.sunlight	9	2731	7
102113	13:04	1	r.writer	10	5092	7
102113	13:04	1	r.naked	11	4734	7
102113	13:04	1	r.guillotine	12	2608	4
102113	13:04	1	r.bird	13	1390	5
102113	13:04	1	r.scorn	14	4100	3
102113	13:04	1	r.terrific	15	4870	7
102113	13:04	1	r.timid	16	2458	5
102113	13:04	1	r.trust	17	1862	6
102113	13:04	1	r.farm	18	16681	5
102113	13:04	1	r.kitten	19	2081	7
102113	13:04	1	r.office	20	10211	7
102113	13:04	1	r.nonchalant	21	2603	3
102113	13:04	1	r.sissy	22	2105	6
102113	13:04	1	r.friendly	23	3603	3
102113	13:04	1	r.birthday	24	3825	2
102113	13:04	1	r.cannon	25	8334	3
102113	13:04	1	r.water	26	2393	4
102113	13:04	1	r.knife	27	7711	5
102113	13:04	1	r.bar	28	2561	5
102113	13:04	1	r.termite	29	2545	7
102113	13:04	1	r.passage	30	5208	2
102113	13:04	1	r.fire	31	6127	8
102113	13:04	1	r.rock	32	3913	1
102113	13:04	1	r.malaria	33	5115	8
102113	13:04	1	r.trophy	34	14245	4
102113	13:04	1	r.lightbulb	35	3173	7
102113	13:04	1	r.embattled	36	11116	9
102113	13:04	1	r.cruel	37	3328	7
102113	13:04	1	r.ecstasy	38	2713	8
102113	13:04	1	r.spray	39	1939	5
102113	13:04	1	r.palace	40	3339	3
102113	13:04	1	r.measles	41	3580	5
102113	13:04	1	r.bowl	42	5339	8
102113	13:04	1	r.unhappy	43	3667	4
102113	13:04	1	r.square	44	4528	7
102113	13:04	1	r.scandal	45	12337	3
102113	13:04	1	r.butterfly	46	7341	6
102113	13:04	1	r.neglect	47	6759	3
102113	13:04	1	r.column	48	3584	8
102113	13:04	1	r.vision	49	5447	7
102113	13:04	1	r.hard	50	4412	8
102113	13:04	1	r.derelict	51	1409	9
102113	13:04	1	r.manner	52	2126	9
102113	13:04	1	r.kick	53	2935	3
102113	13:04	1	r.humiliate	54	3264	7
102113	13:04	1	r.pest	55	9899	1
102113	13:04	1	r.quiet	56	3280	1
102113	13:04	1	r.intimate	57	2858	9
102113	13:04	1	r.lucky	58	2750	5
102113	13:04	1	r.angry	59	2934	7
102113	13:04	1	r.fascinate	60	5175	4
102113	13:04	1	howtype	1	20253	5
102113	16:31	1	speed	1	2782	73
102113	16:31	1	error	2	1853	95
102113	16:31	1	whichhand	3	6474	Right
102113	16:31	1	f.glole	1	10252	4
102113	16:31	1	f.kweed	2	3802	6
102113	16:31	1	f.spome	3	3305	6
102113	16:31	1	f.yeem	4	2210	3
102113	16:31	1	f.pleesh	5	1672	3
102113	16:31	1	f.krooch	6	2931	1
102113	16:31	1	f.twogue	7	3916	4
102113	16:31	1	f.smoom	8	3181	6
102113	16:31	1	f.tweel	9	2508	6
102113	16:31	1	f.snane	10	2078	3
102113	16:31	1	f.wogue	11	2713	3
102113	16:31	1	f.smone	12	1306	3
102113	16:31	1	f.yame	13	3907	4
102113	16:31	1	f.sleese	14	4198	2
102113	16:31	1	f.thweeze	15	3764	2
102113	16:31	1	f.loche	16	2692	8
102113	16:31	1	f.klale	17	2350	2
102113	16:31	1	f.trook	18	2958	5
102113	16:31	1	f.toosh	19	2934	5
102113	16:31	1	f.chobe	20	4415	1
102113	16:31	1	f.twape	21	3149	1
102113	16:31	1	f.thooch	22	2709	3
102113	16:31	1	f.breeb	23	4590	3
102113	16:31	1	f.zeer	24	2261	8
102113	16:31	1	f.klood	25	1624	4
102113	16:31	1	f.thwake	26	1205	2
102113	16:31	1	f.thrare	27	1915	1
102113	16:31	1	f.sloor	28	1804	3
102113	16:31	1	f.troke	29	4234	4
102113	16:31	1	f.droof	30	2983	2
102113	16:31	1	f.preel	31	2910	4
102113	16:31	1	f.mafe	32	5535	5
102113	16:31	1	f.thwobe	33	2320	3
102113	16:31	1	f.slafe	34	2713	4
102113	16:31	1	f.smool	35	2179	5
102113	16:31	1	f.theeg	36	2721	3
102113	16:31	1	f.twoom	37	4338	2
102113	16:31	1	f.smode	38	4588	4
102113	16:31	1	f.veek	39	5131	6
102113	16:31	1	f.thwooze	40	3205	2
102113	16:31	1	f.shrashe	41	2859	1
102113	16:31	1	f.skogue	42	1478	2
102113	16:31	1	f.joog	43	2601	3
102113	16:31	1	f.dwool	44	2526	2
102113	16:31	1	f.toog	45	3367	3
102113	16:31	1	f.dweed	46	3278	5
102113	16:31	1	f.joshe	47	4001	6
102113	16:31	1	f.glale	48	2928	4
102113	16:31	1	f.prate	49	1641	5
102113	16:31	1	f.bague	50	2893	7
102113	16:31	1	f.twase	51	1735	3
102113	16:31	1	f.shrage	52	3439	5
102113	16:31	1	f.bleesh	53	3708	2
102113	16:31	1	f.twoog	54	2318	2
102113	16:31	1	f.neef	55	2432	4
102113	16:31	1	f.flooch	56	4028	6
102113	16:31	1	f.bleel	57	1297	3
102113	16:31	1	f.yache	58	4643	4
102113	16:31	1	f.krabe	59	2711	6
102113	16:31	1	f.bloog	60	3481	4
102113	16:31	1	r.fragrance	1	5171	7
102113	16:31	1	r.skijump	2	3003	3
102113	16:31	1	r.improve	3	1705	5
102113	16:31	1	r.confused	4	2586	5
102113	16:31	1	r.lantern	5	1369	5
102113	16:31	1	r.dagger	6	3384	6
102113	16:31	1	r.embarrassed	7	4967	4
102113	16:31	1	r.kerchief	8	3135	5
102113	16:31	1	r.frog	9	2759	8
102113	16:31	1	r.sunrise	10	1263	7
102113	16:31	1	r.gripe	11	2370	3
102113	16:31	1	r.pervert	12	2353	2
102113	16:31	1	r.grateful	13	1673	7
102113	16:31	1	r.salute	14	1468	7
102113	16:31	1	r.jelly	15	3046	6
102113	16:31	1	r.bathtub	16	1506	7
102113	16:31	1	r.leprosy	17	1068	1
102113	16:31	1	r.cemetery	18	791	1
102113	16:31	1	r.pamphlet	19	1396	5
102113	16:31	1	r.hurt	20	1938	3
102113	16:31	1	r.metal	21	1523	5
102113	16:31	1	r.devil	22	1652	3
102113	16:31	1	r.dawn	23	1999	5
102113	16:31	1	r.hostile	24	1621	4
102113	16:31	1	r.hate	25	1226	2
102113	16:31	1	r.kettle	26	1366	5
102113	16:31	1	r.untroubled	27	1645	5
102113	16:31	1	r.germs	28	1697	4
102113	16:31	1	r.ace	29	1794	8
102113	16:31	1	r.limber	30	1184	5
102113	16:31	1	r.pizza	31	1582	6
102113	16:31	1	r.heart	32	1148	7
102113	16:31	1	r.decompose	33	2932	5
102113	16:31	1	r.theory	34	1189	5
102113	16:31	1	r.bride	35	2730	8
102113	16:31	1	r.nun	36	2547	4
102113	16:31	1	r.FALSE	37	2619	4
102113	16:31	1	r.thermometer	38	1113	5
102113	16:31	1	r.despairing	39	1713	3
102113	16:31	1	r.outdoors	40	1794	5
102113	16:31	1	r.hit	41	2560	4
102113	16:31	1	r.protected	42	1455	6
102113	16:31	1	r.incentive	43	3979	5
102113	16:31	1	r.concentrate	44	1146	5
102113	16:31	1	r.thoughtful	45	1665	6
102113	16:31	1	r.ambition	46	1732	6
102113	16:31	1	r.paper	47	1292	5
102113	16:31	1	r.neurotic	48	1871	5
102113	16:31	1	r.girl	49	1322	7
102113	16:31	1	r.lavish	50	1850	5
102113	16:31	1	r.mucus	51	1166	3
102113	16:31	1	r.blind	52	2757	5
102113	16:31	1	r.invest	53	2941	6
102113	16:31	1	r.nourish	54	2212	8
102113	16:31	1	r.reserved	55	2211	5
102113	16:31	1	r.bold	56	1416	6
102113	16:31	1	r.gentle	57	1573	9
102113	16:31	1	r.dustpan	58	1644	5
102113	16:31	1	r.noose	59	2391	3
102113	16:31	1	r.knife	60	2374	6
102113	16:31	1	howtype	1	11876	5
102213	10:00	1	speed	1	13028	82
102213	10:00	1	error	2	3625	88
102213	10:00	1	whichhand	3	25230	left
102213	10:00	1	f.speep	1	7746	2
102213	10:00	1	f.swole	2	3916	1
102213	10:00	1	f.dware	3	3069	6
102213	10:00	1	f.zare	4	4889	8
102213	10:00	1	f.yage	5	2373	9
102213	10:00	1	f.vook	6	2036	2
102213	10:00	1	f.shreel	7	2376	7
102213	10:00	1	f.gothe	8	2246	6
102213	10:00	1	f.throle	9	2250	1
102213	10:00	1	f.dwoove	10	3942	9
102213	10:00	1	f.thape	11	1735	1
102213	10:00	1	f.trooge	12	1767	8
102213	10:00	1	f.swase	13	1757	5
102213	10:00	1	f.smeef	14	1190	3
102213	10:00	1	f.spote	15	1804	8
102213	10:00	1	f.gleeg	16	1681	6
102213	10:00	1	f.shroor	17	1300	9
102213	10:00	1	f.thwoge	18	1677	3
102213	10:00	1	f.cheeg	19	1111	2
102213	10:00	1	f.gwofe	20	2257	7
102213	10:00	1	f.freeg	21	1836	5
102213	10:00	1	f.troge	22	1288	8
102213	10:00	1	f.leel	23	1786	2
102213	10:00	1	f.thoove	24	1576	8
102213	10:00	1	f.froof	25	583	5
102213	10:00	1	f.shogue	26	797	7
102213	10:00	1	f.foop	27	905	3
102213	10:00	1	f.spate	28	1691	6
102213	10:00	1	f.yashe	29	1278	1
102213	10:00	1	f.skake	30	2208	2
102213	10:00	1	f.grooge	31	1494	8
102213	10:00	1	f.skogue	32	1679	5
102213	10:00	1	f.jeeth	33	1242	2
102213	10:00	1	f.peeth	34	1558	8
102213	10:00	1	f.dwore	35	1374	4
102213	10:00	1	f.shrobe	36	1413	7
102213	10:00	1	f.gwooze	37	1305	1
102213	10:00	1	f.shrate	38	1531	4
102213	10:00	1	f.wogue	39	2155	8
102213	10:00	1	f.voom	40	2427	5
102213	10:00	1	f.kwoob	41	1663	2
102213	10:00	1	f.yeem	42	1810	5
102213	10:00	1	f.theel	43	2255	8
102213	10:00	1	f.kwashe	44	3147	2
102213	10:00	1	f.thope	45	3259	8
102213	10:00	1	f.thone	46	2366	9
102213	10:00	1	f.glogue	47	3198	7
102213	10:00	1	f.poshe	48	2236	6
102213	10:00	1	f.snooge	49	1880	3
102213	10:00	1	f.klofe	50	1819	7
102213	10:00	1	f.brathe	51	1903	9
102213	10:00	1	f.sloor	52	1905	8
102213	10:00	1	f.yase	53	1915	3
102213	10:00	1	f.klooch	54	1996	6
102213	10:00	1	f.gware	55	1330	7
102213	10:00	1	f.droog	56	1962	3
102213	10:00	1	f.thrashe	57	2033	2
102213	10:00	1	f.kreesh	58	1317	2
102213	10:00	1	f.thwoshe	59	2510	4
102213	10:00	1	f.flape	60	3703	8
102213	10:00	1	r.dancer	1	2072	7
102213	10:00	1	r.gymnast	2	2555	5
102213	10:00	1	r.snake	3	2155	2
102213	10:00	1	r.offend	4	1139	2
102213	10:00	1	r.bathtub	5	2059	9
102213	10:00	1	r.respect	6	1686	9
102213	10:00	1	r.achievement	7	897	9
102213	10:00	1	r.cozy	8	1002	9
102213	10:00	1	r.malaria	9	2431	5
102213	10:00	1	r.happy	10	1412	9
102213	10:00	1	r.water	11	848	9
102213	10:00	1	r.suffocate	12	1484	1
102213	10:00	1	r.dream	13	1446	9
102213	10:00	1	r.truth	14	1002	9
102213	10:00	1	r.saint	15	959	9
102213	10:00	1	r.prison	16	1454	1
102213	10:00	1	r.dentist	17	1194	1
102213	10:00	1	r.punishment	18	991	1
102213	10:00	1	r.radio	19	1581	9
102213	10:00	1	r.fever	20	1692	1
102213	10:00	1	r.car	21	3254	8
102213	10:00	1	r.lightbulb	22	2930	5
102213	10:00	1	r.ridicule	23	1779	1
102213	10:00	1	r.machine	24	2113	7
102213	10:00	1	r.bland	25	3906	5
102213	10:00	1	r.thankful	26	1429	9
102213	10:00	1	r.safe	27	1041	9
102213	10:00	1	r.bless	28	821	9
102213	10:00	1	r.employment	29	1154	9
102213	10:00	1	r.modest	30	1537	5
102213	10:00	1	r.injury	31	1393	1
102213	10:00	1	r.mad	32	839	1
102213	10:00	1	r.rigid	33	835	1
102213	10:00	1	r.ambition	34	783	1
102213	10:00	1	r.mushroom	35	1789	5
102213	10:00	1	r.charm	36	1971	9
102213	10:00	1	r.deformed	37	2418	3
102213	10:00	1	r.yacht	38	1687	9
102213	10:00	1	r.advantage	39	4442	9
102213	10:00	1	r.depressed	40	2766	1
102213	10:00	1	r.suicide	41	838	1
102213	10:00	1	r.bastard	42	1114	1
102213	10:00	1	r.famous	43	1522	9
102213	10:00	1	r.health	44	1963	9
102213	10:00	1	r.muscular	45	1170	9
102213	10:00	1	r.killer	46	1665	1
102213	10:00	1	r.slush	47	1748	5
102213	10:00	1	r.pinch	48	860	5
102213	10:00	1	r.alert	49	1582	8
102213	10:00	1	r.life	50	1213	9
102213	10:00	1	r.hairdryer	51	1385	5
102213	10:00	1	r.gangrene	52	1696	4
102213	10:00	1	r.loyal	53	1497	9
102213	10:00	1	r.honor	54	1267	9
102213	10:00	1	r.king	55	862	9
102213	10:00	1	r.rabies	56	1432	1
102213	10:00	1	r.messy	57	1045	1
102213	10:00	1	r.honest	58	1496	8
102213	10:00	1	r.delayed	59	1393	3
102213	10:00	1	r.devil	60	1703	1
102213	10:00	1	howtype	1	13671	6
102313	11:59	1	speed	1	5868	45
102313	11:59	1	error	2	1793	97
102313	11:59	1	whichhand	3	11071	right
102313	11:59	1	r.thrill	1	16303	6
102313	11:59	1	r.murderer	2	4397	4
102313	11:59	1	r.cute	3	3276	8
102313	11:59	1	r.excitement	4	2863	8
102313	11:59	1	r.rejected	5	1722	5
102313	11:59	1	r.phase	6	3547	5
102313	11:59	1	r.sugar	7	1844	6
102313	11:59	1	r.priest	8	6831	5
102313	11:59	1	r.blister	9	2813	5
102313	11:59	1	r.banner	10	4082	6
102313	11:59	1	r.friend	11	2206	8
102313	11:59	1	r.fabric	12	2500	5
102313	11:59	1	r.malice	13	2766	3
102313	11:59	1	r.appliance	14	4133	5
102313	11:59	1	r.terrible	15	2495	6
102313	11:59	1	r.jail	16	5760	5
102313	11:59	1	r.plain	17	4128	6
102313	11:59	1	r.water	18	3450	7
102313	11:59	1	r.abuse	19	6070	2
102313	11:59	1	r.hairdryer	20	5610	4
102313	11:59	1	r.humane	21	2457	7
102313	11:59	1	r.relaxed	22	3261	9
102313	11:59	1	r.death	23	2456	3
102313	11:59	1	r.silly	24	1788	7
102313	11:59	1	r.mischief	25	3474	5
102313	11:59	1	r.fish	26	3563	5
102313	11:59	1	r.sexy	27	3844	6
102313	11:59	1	r.art	28	11937	8
102313	11:59	1	r.item	29	3597	5
102313	11:59	1	r.hopeful	30	4203	7
102313	11:59	1	r.humor	31	6570	7
102313	11:59	1	r.busybody	32	6578	4
102313	11:59	1	r.lively	33	2050	6
102313	11:59	1	r.sunlight	34	4994	7
102313	11:59	1	r.barrel	35	1626	5
102313	11:59	1	r.millionaire	36	4688	7
102313	11:59	1	r.exercise	37	3900	6
102313	11:59	1	r.famous	38	4142	8
102313	11:59	1	r.neurotic	39	3046	3
102313	11:59	1	r.troubled	40	5650	5
102313	11:59	1	r.torture	41	4367	3
102313	11:59	1	r.coffin	42	2773	3
102313	11:59	1	r.insolent	43	4454	4
102313	11:59	1	r.greet	44	4874	6
102313	11:59	1	r.tower	45	3453	5
102313	11:59	1	r.cuisine	46	3874	6
102313	11:59	1	r.slush	47	3998	5
102313	11:59	1	r.baby	48	2844	6
102313	11:59	1	r.knife	49	4048	4
102313	11:59	1	r.nuisance	50	2741	5
102313	11:59	1	r.shark	51	4957	5
102313	11:59	1	r.riot	52	3541	4
102313	11:59	1	r.prick	53	2342	3
102313	11:59	1	r.lust	54	6140	1
102313	11:59	1	r.caress	55	5246	3
102313	11:59	1	r.absurd	56	8659	6
102313	11:59	1	r.cannon	57	8497	5
102313	11:59	1	r.infatuation	58	5524	4
102313	11:59	1	r.bath	59	1918	5
102313	11:59	1	r.lottery	60	1399	6
102313	11:59	1	f.kwashe	1	5952	5
102313	11:59	1	f.shrome	2	1327	4
102313	11:59	1	f.plafe	3	1889	3
102313	11:59	1	f.noof	4	1563	3
102313	11:59	1	f.seeb	5	3058	4
102313	11:59	1	f.droge	6	2213	3
102313	11:59	1	f.skage	7	1659	2
102313	11:59	1	f.yane	8	1765	2
102313	11:59	1	f.froob	9	6916	2
102313	11:59	1	f.yoge	10	1758	2
102313	11:59	1	f.kwoob	11	1208	2
102313	11:59	1	f.gwoot	12	2385	1
102313	11:59	1	f.shogue	13	688	1
102313	11:59	1	f.zage	14	1242	1
102313	11:59	1	f.fleeth	15	2022	2
102313	11:59	1	f.thofe	16	3146	1
102313	11:59	1	f.dreet	17	1891	1
102313	11:59	1	f.fleech	18	2493	1
102313	11:59	1	f.zoshe	19	1743	1
102313	11:59	1	f.meesh	20	990	1
102313	11:59	1	f.togue	21	2429	1
102313	11:59	1	f.shrape	22	6385	1
102313	11:59	1	f.sashe	23	8721	1
102313	11:59	1	f.droof	24	2052	1
102313	11:59	1	f.choom	25	3536	2
102313	11:59	1	f.weech	26	1801	1
102313	11:59	1	f.gache	27	1223	2
102313	11:59	1	f.yone	28	1220	1
102313	11:59	1	f.smoge	29	921	1
102313	11:59	1	f.skeeb	30	721	1
102313	11:59	1	f.flashe	31	2202	1
102313	11:59	1	f.freege	32	1328	1
102313	11:59	1	f.shroose	33	2376	2
102313	11:59	1	f.drare	34	1710	1
102313	11:59	1	f.gwafe	35	883	1
102313	11:59	1	f.thweel	36	637	1
102313	11:59	1	f.pabe	37	1481	2
102313	11:59	1	f.shraze	38	1004	1
102313	11:59	1	f.choog	39	2105	2
102313	11:59	1	f.drague	40	763	2
102313	11:59	1	f.skoof	41	978	2
102313	11:59	1	f.dweeve	42	2352	2
102313	11:59	1	f.swoof	43	975	2
102313	11:59	1	f.dweet	44	629	2
102313	11:59	1	f.shreep	45	681	2
102313	11:59	1	f.flove	46	1483	2
102313	11:59	1	f.vade	47	1501	2
102313	11:59	1	f.veeb	48	2183	3
102313	11:59	1	f.shroob	49	917	2
102313	11:59	1	f.broog	50	1222	2
102313	11:59	1	f.kweem	51	3232	2
102313	11:59	1	f.kwome	52	1375	3
102313	11:59	1	f.skague	53	806	2
102313	11:59	1	f.shrogue	54	7467	3
102313	11:59	1	f.yooze	55	983	3
102313	11:59	1	f.snoog	56	1279	3
102313	11:59	1	f.yaze	57	1192	2
102313	11:59	1	f.proop	58	1158	2
102313	11:59	1	f.threeve	59	989	2
102313	11:59	1	f.zeet	60	1235	3
102313	11:59	1	howtype	1	12695	5
102313	13:29	1	speed	1	3206	33
102313	13:29	1	error	2	4145	97
102313	13:29	1	whichhand	3	9818	right
102313	13:29	1	f.yope	1	16471	3
102313	13:29	1	f.lool	2	4855	5
102313	13:29	1	f.sleer	3	3028	2
102313	13:29	1	f.jeem	4	4553	7
102313	13:29	1	f.sneem	5	2481	1
102313	13:29	1	f.kwape	6	3460	1
102313	13:29	1	f.gleel	7	3568	7
102313	13:29	1	f.thoshe	8	5915	5
102313	13:29	1	f.dabe	9	4887	4
102313	13:29	1	f.zogue	10	4795	8
102313	13:29	1	f.thabe	11	3474	4
102313	13:29	1	f.cheeb	12	3493	7
102313	13:29	1	f.throop	13	5695	9
102313	13:29	1	f.dreeb	14	2450	8
102313	13:29	1	f.moosh	15	1782	1
102313	13:29	1	f.stooth	16	1874	1
102313	13:29	1	f.throshe	17	5055	5
102313	13:29	1	f.thofe	18	2340	3
102313	13:29	1	f.drade	19	7412	7
102313	13:29	1	f.voob	20	4131	6
102313	13:29	1	f.pleesh	21	6404	9
102313	13:29	1	f.spathe	22	2172	3
102313	13:29	1	f.yague	23	1603	1
102313	13:29	1	f.brore	24	2129	1
102313	13:29	1	f.glafe	25	2857	4
102313	13:29	1	f.dwoor	26	2493	2
102313	13:29	1	f.shrone	27	4183	9
102313	13:29	1	f.kreef	28	3390	5
102313	13:29	1	f.slool	29	1829	1
102313	13:29	1	f.dweege	30	3169	4
102313	13:29	1	f.mashe	31	2825	3
102313	13:29	1	f.fofe	32	2924	5
102313	13:29	1	f.nooge	33	1861	2
102313	13:29	1	f.jeech	34	3105	7
102313	13:29	1	f.gwoove	35	3955	8
102313	13:29	1	f.zoof	36	2067	8
102313	13:29	1	f.thwoon	37	2925	8
102313	13:29	1	f.bashe	38	2535	9
102313	13:29	1	f.kwoosh	39	3615	7
102313	13:29	1	f.zare	40	2037	7
102313	13:29	1	f.soche	41	3121	9
102313	13:29	1	f.twoshe	42	3914	3
102313	13:29	1	f.shreen	43	3267	6
102313	13:29	1	f.skame	44	3158	4
102313	13:29	1	f.trache	45	3749	8
102313	13:29	1	f.foog	46	3110	3
102313	13:29	1	f.preech	47	3958	9
102313	13:29	1	f.dwoosh	48	2959	3
102313	13:29	1	f.foop	49	2079	2
102313	13:29	1	f.yoog	50	1946	1
102313	13:29	1	f.yoze	51	4192	6
102313	13:29	1	f.thwabe	52	2231	1
102313	13:29	1	f.trome	53	3395	5
102313	13:29	1	f.swave	54	2098	9
102313	13:29	1	f.sleel	55	2444	5
102313	13:29	1	f.smoob	56	2928	4
102313	13:29	1	f.kleed	57	5688	8
102313	13:29	1	f.thrade	58	6172	5
102313	13:29	1	f.throfe	59	3797	1
102313	13:29	1	f.flobe	60	3675	2
102313	13:29	1	r.sunset	1	8007	9
102313	13:29	1	r.casino	2	3886	6
102313	13:29	1	r.suspicious	3	4737	3
102313	13:29	1	r.dump	4	1939	1
102313	13:29	1	r.useful	5	2635	8
102313	13:29	1	r.ocean	6	1968	9
102313	13:29	1	r.pretty	7	1359	9
102313	13:29	1	r.patent	8	3469	5
102313	13:29	1	r.mad	9	2369	2
102313	13:29	1	r.panic	10	1552	2
102313	13:29	1	r.sunrise	11	2448	9
102313	13:29	1	r.famous	12	3132	8
102313	13:29	1	r.money	13	1837	9
102313	13:29	1	r.respectful	14	1817	9
102313	13:29	1	r.dancer	15	3913	7
102313	13:29	1	r.fever	16	1800	1
102313	13:29	1	r.infant	17	3221	9
102313	13:29	1	r.perfection	18	1995	9
102313	13:29	1	r.fur	19	1689	8
102313	13:29	1	r.dustpan	20	2819	4
102313	13:29	1	r.bloody	21	4392	1
102313	13:29	1	r.leisurely	22	4311	6
102313	13:29	1	r.triumph	23	2784	9
102313	13:29	1	r.mucus	24	1799	1
102313	13:29	1	r.innocent	25	2365	8
102313	13:29	1	r.spanking	26	3076	2
102313	13:29	1	r.nonsense	27	4367	5
102313	13:29	1	r.event	28	5421	8
102313	13:29	1	r.naked	29	2996	5
102313	13:29	1	r.accident	30	1842	1
102313	13:29	1	r.chance	31	2893	9
102313	13:29	1	r.movie	32	1527	9
102313	13:29	1	r.ambition	33	4432	7
102313	13:29	1	r.adorable	34	1700	9
102313	13:29	1	r.theory	35	2054	8
102313	13:29	1	r.rude	36	1818	2
102313	13:29	1	r.breeze	37	2439	9
102313	13:29	1	r.wagon	38	4579	5
102313	13:29	1	r.watch	39	1586	5
102313	13:29	1	r.blubber	40	2857	3
102313	13:29	1	r.profit	41	2365	9
102313	13:29	1	r.nasty	42	2461	2
102313	13:29	1	r.odd	43	3072	5
102313	13:29	1	r.repentant	44	2683	5
102313	13:29	1	r.fireworks	45	2230	8
102313	13:29	1	r.crucify	46	3643	1
102313	13:29	1	r.patriot	47	2543	8
102313	13:29	1	r.python	48	4423	4
102313	13:29	1	r.trouble	49	2444	4
102313	13:29	1	r.hatred	50	2273	1
102313	13:29	1	r.wit	51	2363	8
102313	13:29	1	r.vandal	52	1851	1
102313	13:29	1	r.holiday	53	4071	9
102313	13:29	1	r.blister	54	1922	2
102313	13:29	1	r.friendly	55	2114	8
102313	13:29	1	r.sickness	56	1755	1
102313	13:29	1	r.stupid	57	3651	3
102313	13:29	1	r.person	58	2807	5
102313	13:29	1	r.anger	59	3669	2
102313	13:29	1	r.pizza	60	2385	9
102313	13:29	1	howtype	1	19902	4
102413	11:00	1	speed	1	3216	59
102413	11:00	1	error	2	2290	94
102413	11:00	1	whichhand	3	4774	right
102413	11:04	1	speed	1	3284	59
102413	11:04	1	error	2	2014	94
102413	11:04	1	whichhand	3	5877	right
102413	11:04	1	r.hospital	1	11318	4
102413	11:04	1	r.useless	2	3755	2
102413	11:04	1	r.rusty	3	2530	3
102413	11:04	1	r.square	4	2288	4
102413	11:04	1	r.vandal	5	2526	2
102413	11:04	1	r.fat	6	2791	2
102413	11:04	1	r.scornful	7	4157	3
102413	11:04	1	r.joyful	8	3390	8
102413	11:04	1	r.locker	9	2389	5
102413	11:04	1	r.guillotine	10	2732	1
102413	11:04	1	r.freedom	11	3852	9
102413	11:04	1	r.fungus	12	2648	4
102413	11:04	1	r.knowledge	13	2197	8
102413	11:04	1	r.toothache	14	1930	2
102413	11:04	1	r.rough	15	3450	5
102413	11:04	1	r.glacier	16	2791	5
102413	11:04	1	r.pus	17	2014	3
102413	11:04	1	r.horse	18	3106	5
102413	11:04	1	r.flower	19	2429	8
102413	11:04	1	r.beast	20	2025	4
102413	11:04	1	r.trouble	21	2214	2
102413	11:04	1	r.respectful	22	2234	8
102413	11:04	1	r.grass	23	2336	7
102413	11:04	1	r.reward	24	1815	8
102413	11:04	1	r.urine	25	1980	3
102413	11:04	1	r.garter	26	1979	5
102413	11:04	1	r.agony	27	1913	2
102413	11:04	1	r.wonder	28	1802	7
102413	11:04	1	r.priest	29	2032	6
102413	11:04	1	r.terrific	30	2013	7
102413	11:04	1	r.gentle	31	2288	7
102413	11:04	1	r.arrogant	32	1748	3
102413	11:04	1	r.butter	33	2044	5
102413	11:04	1	r.sky	34	2104	6
102413	11:04	1	r.cake	35	1569	7
102413	11:04	1	r.thrill	36	2031	8
102413	11:04	1	r.achievement	37	2069	9
102413	11:04	1	r.hostage	38	1696	2
102413	11:04	1	r.incentive	39	2249	7
102413	11:04	1	r.masturbate	40	1836	2
102413	11:04	1	r.roach	41	2897	2
102413	11:04	1	r.danger	42	1716	2
102413	11:04	1	r.mutation	43	2501	3
102413	11:04	1	r.progress	44	1671	7
102413	11:04	1	r.insolent	45	2040	4
102413	11:04	1	r.dove	46	2102	8
102413	11:04	1	r.poster	47	2271	5
102413	11:04	1	r.agility	48	2963	5
102413	11:04	1	r.laughter	49	2081	9
102413	11:04	1	r.ambition	50	1805	8
102413	11:04	1	r.ship	51	2386	6
102413	11:04	1	r.saint	52	1817	7
102413	11:04	1	r.disloyal	53	2525	3
102413	11:04	1	r.highway	54	1926	5
102413	11:04	1	r.detached	55	2198	4
102413	11:04	1	r.honey	56	1908	6
102413	11:04	1	r.song	57	1846	7
102413	11:04	1	r.wine	58	1946	7
102413	11:04	1	r.mistake	59	1754	4
102413	11:04	1	r.erotic	60	2097	5
102413	11:04	1	f.sabe	1	2530	4
102413	11:04	1	f.troche	2	3387	5
102413	11:04	1	f.tafe	3	2146	5
102413	11:04	1	f.spome	4	1538	4
102413	11:04	1	f.drathe	5	1882	4
102413	11:04	1	f.shreese	6	1877	7
102413	11:04	1	f.dwothe	7	2391	3
102413	11:04	1	f.brore	8	1581	4
102413	11:04	1	f.yoove	9	4060	7
102413	11:04	1	f.pobe	10	3624	4
102413	11:04	1	f.thrague	11	1861	8
102413	11:04	1	f.speeg	12	1831	3
102413	11:04	1	f.treem	13	1444	7
102413	11:04	1	f.troog	14	2656	4
102413	11:04	1	f.froge	15	2812	3
102413	11:04	1	f.snague	16	1913	2
102413	11:04	1	f.dreef	17	2985	5
102413	11:04	1	f.joof	18	1465	7
102413	11:04	1	f.proop	19	1467	3
102413	11:04	1	f.geech	20	2871	5
102413	11:04	1	f.greer	21	2074	4
102413	11:04	1	f.zoot	22	1997	7
102413	11:04	1	f.klode	23	2170	3
102413	11:04	1	f.pleel	24	3010	3
102413	11:04	1	f.speem	25	2440	6
102413	11:04	1	f.slale	26	4747	5
102413	11:04	1	f.zore	27	2028	6
102413	11:04	1	f.yose	28	4753	5
102413	11:04	1	f.zote	29	1922	6
102413	11:04	1	f.shroze	30	1427	4
102413	11:04	1	f.zare	31	2791	7
102413	11:04	1	f.kwooge	32	2165	3
102413	11:04	1	f.skathe	33	3197	5
102413	11:04	1	f.swoche	34	2195	6
102413	11:04	1	f.gwoof	35	2346	7
102413	11:04	1	f.fleeg	36	1512	4
102413	11:04	1	f.swaze	37	3489	7
102413	11:04	1	f.krothe	38	2181	3
102413	11:04	1	f.skooge	39	1891	3
102413	11:04	1	f.snooth	40	3742	7
102413	11:04	1	f.twole	41	2844	3
102413	11:04	1	f.voob	42	3162	4
102413	11:04	1	f.toosh	43	2665	5
102413	11:04	1	f.glooch	44	2324	5
102413	11:04	1	f.broog	45	2006	5
102413	11:04	1	f.stoose	46	1836	6
102413	11:04	1	f.dweep	47	2752	6
102413	11:04	1	f.twove	48	3216	5
102413	11:04	1	f.joom	49	7702	5
102413	11:04	1	f.peeb	50	3129	4
102413	11:04	1	f.yone	51	2562	3
102413	11:04	1	f.shogue	52	2993	6
102413	11:04	1	f.thwofe	53	3383	5
102413	11:04	1	f.loshe	54	1822	5
102413	11:04	1	f.gloke	55	1867	6
102413	11:04	1	f.glothe	56	2742	6
102413	11:04	1	f.gwoot	57	4918	4
102413	11:04	1	f.veef	58	1904	7
102413	11:04	1	f.mobe	59	2610	6
102413	11:04	1	f.sloosh	60	2479	6
102413	11:04	1	howtype	1	6896	6
