date	time	subject	trialcode	trialnum	latency	response
101413	12:58	1	speed	1	2979	48
101413	12:58	1	error	2	1642	100
101413	12:58	1	whichhand	3	7454	right
101413	12:58	1	r.champ	1	9983	8
101413	12:58	1	r.opinion	2	5688	6
101413	12:58	1	r.white	3	2924	5
101413	12:58	1	r.justice	4	3629	6
101413	12:58	1	r.fabric	5	4690	4
101413	12:58	1	r.brother	6	5765	5
101413	12:58	1	r.murderer	7	5357	1
101413	12:58	1	r.finger	8	3637	3
101413	12:58	1	r.excellence	9	5043	9
101413	12:58	1	r.breast	10	4495	1
101413	12:58	1	r.mucus	11	1946	1
101413	12:58	1	r.column	12	2521	5
101413	12:58	1	r.nature	13	2955	8
101413	12:58	1	r.leisurely	14	2155	9
101413	12:58	1	r.hard	15	1802	4
101413	12:58	1	r.bastard	16	1816	2
101413	12:58	1	r.debt	17	2509	1
101413	12:58	1	r.urine	18	1175	1
101413	12:58	1	r.mobility	19	3157	5
101413	12:58	1	r.patient	20	2029	6
101413	12:58	1	r.letter	21	1930	5
101413	12:58	1	r.pretty	22	2050	8
101413	12:58	1	r.toothache	23	2365	1
101413	12:58	1	r.gift	24	3237	7
101413	12:58	1	r.fame	25	1753	2
101413	12:58	1	r.cellar	26	2457	1
101413	12:58	1	r.filth	27	1172	1
101413	12:58	1	r.patriot	28	2627	8
101413	12:58	1	r.impair	29	5567	3
101413	12:58	1	r.infant	30	1863	6
101413	12:58	1	r.paint	31	3410	5
101413	12:58	1	r.pressure	32	1928	3
101413	12:58	1	r.bake	33	1912	8
101413	12:58	1	r.python	34	1481	1
101413	12:58	1	r.talent	35	3132	7
101413	12:58	1	r.kindness	36	2020	9
101413	12:58	1	r.people	37	4785	6
101413	12:58	1	r.insolent	38	1449	1
101413	12:58	1	r.snob	39	900	1
101413	12:58	1	r.ecstasy	40	1814	1
101413	12:58	1	r.fire	41	1378	1
101413	12:58	1	r.swamp	42	1320	1
101413	12:58	1	r.employment	43	2241	8
101413	12:58	1	r.infection	44	2102	1
101413	12:58	1	r.skijump	45	2063	8
101413	12:58	1	r.penthouse	46	3242	5
101413	12:58	1	r.execution	47	2334	1
101413	12:58	1	r.starving	48	2150	2
101413	12:58	1	r.vandal	49	1383	1
101413	12:58	1	r.peace	50	4644	7
101413	12:58	1	r.termite	51	1330	1
101413	12:58	1	r.curtains	52	1641	5
101413	12:58	1	r.vacation	53	1550	9
101413	12:58	1	r.cabinet	54	3293	5
101413	12:58	1	r.manner	55	2103	6
101413	12:58	1	r.moral	56	1585	8
101413	12:58	1	r.poison	57	1038	1
101413	12:58	1	r.mail	58	1059	2
101413	12:58	1	r.hatred	59	1087	1
101413	12:58	1	r.maggot	60	1049	1
101413	12:58	1	f.nooch	1	5168	1
101413	12:58	1	f.thrafe	2	1775	1
101413	12:58	1	f.cheel	3	3326	6
101413	12:58	1	f.bloof	4	2935	2
101413	12:58	1	f.froshe	5	2464	3
101413	12:58	1	f.preech	6	2539	8
101413	12:58	1	f.poog	7	2268	4
101413	12:58	1	f.theesh	8	2206	2
101413	12:58	1	f.doche	9	3476	8
101413	12:58	1	f.thweer	10	1823	2
101413	12:58	1	f.shrague	11	2748	5
101413	12:58	1	f.smoose	12	2884	5
101413	12:58	1	f.prooch	13	2863	8
101413	12:58	1	f.threek	14	2082	2
101413	12:58	1	f.thweeb	15	1477	1
101413	12:58	1	f.pleesh	16	2111	8
101413	12:58	1	f.swale	17	1976	5
101413	12:58	1	f.fape	18	1854	1
101413	12:58	1	f.shrabe	19	1226	2
101413	12:58	1	f.drood	20	1182	4
101413	12:58	1	f.twave	21	1452	2
101413	12:58	1	f.blove	22	1776	4
101413	12:58	1	f.dweef	23	1270	1
101413	12:58	1	f.gwoom	24	2401	8
101413	12:58	1	f.shroze	25	2079	2
101413	12:58	1	f.speeb	26	3017	5
101413	12:58	1	f.twooth	27	1903	1
101413	12:58	1	f.frafe	28	3160	1
101413	12:58	1	f.yague	29	2152	8
101413	12:58	1	f.yabe	30	1687	5
101413	12:58	1	f.gweet	31	4409	8
101413	12:58	1	f.shrase	32	1848	1
101413	12:58	1	f.snove	33	1139	1
101413	12:58	1	f.vook	34	2291	9
101413	12:58	1	f.kleeb	35	2446	5
101413	12:58	1	f.klobe	36	2465	6
101413	12:58	1	f.snoob	37	1213	1
101413	12:58	1	f.stafe	38	1425	2
101413	12:58	1	f.kwoose	39	1990	5
101413	12:58	1	f.fleef	40	2221	4
101413	12:58	1	f.kleel	41	1914	5
101413	12:58	1	f.throfe	42	2258	1
101413	12:58	1	f.spothe	43	2767	5
101413	12:58	1	f.grare	44	3030	8
101413	12:58	1	f.glook	45	3681	2
101413	12:58	1	f.thake	46	1757	5
101413	12:58	1	f.thobe	47	2677	5
101413	12:58	1	f.dreeg	48	2103	1
101413	12:58	1	f.thogue	49	1681	1
101413	12:58	1	f.shrobe	50	2275	5
101413	12:58	1	f.prate	51	1318	1
101413	12:58	1	f.dafe	52	3111	2
101413	12:58	1	f.theeg	53	1536	1
101413	12:58	1	f.yoche	54	1536	5
101413	12:58	1	f.yape	55	1193	5
101413	12:58	1	f.jeech	56	1454	5
101413	12:58	1	f.dwale	57	1946	5
101413	12:58	1	f.nooge	58	2497	1
101413	12:58	1	f.steeth	59	978	1
101413	12:58	1	f.jeeth	60	1633	1
101413	12:58	1	howtype	1	11868	6
101413	15:34	1	speed	1	2974	52
101413	15:34	1	error	2	3696	92
101413	15:34	1	whichhand	3	5852	right
101413	15:34	1	r.leader	1	4884	7
101413	15:34	1	r.nuisance	2	5591	1
101413	15:34	1	r.loved	3	5406	9
101413	15:34	1	r.devil	4	6749	2
101413	15:34	1	r.foot	5	5742	4
101413	15:34	1	r.zest	6	5031	5
101413	15:34	1	r.fun	7	2740	8
101413	15:34	1	r.charm	8	2781	7
101413	15:34	1	r.foam	9	3451	4
101413	15:34	1	r.sapphire	10	4663	6
101413	15:34	1	r.reptile	11	2883	4
101413	15:34	1	r.annoy	12	3278	2
101413	15:34	1	r.anguished	13	5401	5
101413	15:34	1	r.spring	14	3560	7
101413	15:34	1	r.troubled	15	2367	3
101413	15:34	1	r.agreement	16	2726	7
101413	15:34	1	r.cut	17	4087	4
101413	15:34	1	r.glory	18	2418	8
101413	15:34	1	r.scholar	19	2447	5
101413	15:34	1	r.mutilate	20	4795	1
101413	15:34	1	r.trouble	21	3265	4
101413	15:34	1	r.method	22	4653	6
101413	15:34	1	r.save	23	4201	6
101413	15:34	1	r.mucus	24	7975	3
101413	15:34	1	r.lively	25	3480	7
101413	15:34	1	r.insult	26	2523	4
101413	15:34	1	r.coin	27	5412	6
101413	15:34	1	r.toy	28	4162	5
101413	15:34	1	r.terrified	29	3514	3
101413	15:34	1	r.trash	30	2700	5
101413	15:34	1	r.beast	31	4285	5
101413	15:34	1	r.grenade	32	3296	4
101413	15:34	1	r.shotgun	33	3762	5
101413	15:34	1	r.optimism	34	5362	8
101413	15:34	1	r.alcoholic	35	4346	2
101413	15:34	1	r.modest	36	3339	6
101413	15:34	1	r.malice	37	5139	3
101413	15:34	1	r.lonely	38	2813	3
101413	15:34	1	r.obsession	39	3690	5
101413	15:34	1	r.detached	40	4629	4
101413	15:34	1	r.headlight	41	2746	5
101413	15:34	1	r.execution	42	4210	3
101413	15:34	1	r.couple	43	5032	7
101413	15:34	1	r.vanity	44	2861	5
101413	15:34	1	r.untroubled	45	2888	6
101413	15:34	1	r.bullet	46	2411	3
101413	15:34	1	r.magical	47	2328	6
101413	15:34	1	r.reunion	48	2769	7
101413	15:34	1	r.regretful	49	2776	4
101413	15:34	1	r.slap	50	7926	5
101413	15:34	1	r.candy	51	4169	7
101413	15:34	1	r.corrupt	52	5809	3
101413	15:34	1	r.glacier	53	3391	5
101413	15:34	1	r.evil	54	2974	3
101413	15:34	1	r.mystic	55	3365	6
101413	15:34	1	r.heal	56	2628	7
101413	15:34	1	r.corner	57	3657	4
101413	15:34	1	r.safe	58	4693	7
101413	15:34	1	r.unfaithful	59	4888	3
101413	15:34	1	r.ignorance	60	2971	3
101413	15:34	1	f.thrafe	1	9365	3
101413	15:34	1	f.loche	2	6983	5
101413	15:34	1	f.yage	3	7287	5
101413	15:34	1	f.yave	4	5875	5
101413	15:34	1	f.kweese	5	6255	3
101413	15:34	1	f.gwoom	6	3204	4
101413	15:34	1	f.spope	7	4282	5
101413	15:34	1	f.skeeth	8	3341	3
101413	15:34	1	f.peesh	9	5510	5
101413	15:34	1	f.kague	10	2768	6
101413	15:34	1	f.drache	11	2047	5
101413	15:34	1	f.zeeg	12	6186	5
101413	15:34	1	f.throfe	13	2162	4
101413	15:34	1	f.soosh	14	2473	5
101413	15:34	1	f.choom	15	2796	4
101413	15:34	1	f.speege	16	2306	4
101413	15:34	1	f.chool	17	2388	6
101413	15:34	1	f.theed	18	2098	5
101413	15:34	1	f.twabe	19	3532	4
101413	15:34	1	f.shrope	20	2861	3
101413	15:34	1	f.preeth	21	2864	3
101413	15:34	1	f.kroge	22	1492	4
101413	15:34	1	f.slabe	23	2469	3
101413	15:34	1	f.skeeg	24	2473	3
101413	15:34	1	f.fleeth	25	2100	5
101413	15:34	1	f.skeeve	26	9653	4
101413	15:34	1	f.slache	27	5308	5
101413	15:34	1	f.kwooch	28	3910	5
101413	15:34	1	f.fogue	29	4752	6
101413	15:34	1	f.floove	30	1857	5
101413	15:34	1	f.seeb	31	2364	4
101413	15:34	1	f.pleek	32	2219	6
101413	15:34	1	f.gwame	33	3440	5
101413	15:34	1	f.yaze	34	3597	6
101413	15:34	1	f.slobe	35	4667	4
101413	15:34	1	f.flape	36	3799	6
101413	15:34	1	f.neeb	37	2806	4
101413	15:34	1	f.chobe	38	2620	5
101413	15:34	1	f.sneese	39	2281	4
101413	15:34	1	f.goche	40	2803	4
101413	15:34	1	f.gweeze	41	3593	4
101413	15:34	1	f.veem	42	2072	3
101413	15:34	1	f.swooze	43	6018	5
101413	15:34	1	f.theech	44	3785	4
101413	15:34	1	f.smane	45	3704	5
101413	15:34	1	f.cheed	46	1634	5
101413	15:34	1	f.thoof	47	3262	4
101413	15:34	1	f.thweem	48	1858	5
101413	15:34	1	f.bloge	49	3253	4
101413	15:34	1	f.shoob	50	2681	5
101413	15:34	1	f.jabe	51	1124	4
101413	15:34	1	f.zofe	52	1349	4
101413	15:34	1	f.theeve	53	964	4
101413	15:34	1	f.kwove	54	2562	5
101413	15:34	1	f.floge	55	858	5
101413	15:34	1	f.shreeve	56	1885	4
101413	15:34	1	f.groosh	57	1031	4
101413	15:34	1	f.chathe	58	1324	4
101413	15:34	1	f.glague	59	1740	6
101413	15:34	1	f.vape	60	1725	6
101413	15:34	1	howtype	1	6668	5
101413	15:58	1	speed	1	3382	47
101413	15:58	1	error	2	1936	91
101413	15:58	1	whichhand	3	7137	right
101413	15:58	1	f.theege	1	8223	5
101413	15:58	1	f.ploke	2	7942	4
101413	15:58	1	f.skake	3	6351	7
101413	15:58	1	f.vofe	4	10816	4
101413	15:58	1	f.kreeth	5	28385	6
101413	15:58	1	f.loosh	6	10672	5
101413	15:58	1	f.soog	7	4534	3
101413	15:58	1	f.kwoshe	8	10063	1
101413	15:58	1	f.skashe	9	7756	6
101413	15:58	1	f.vood	10	10990	5
101413	15:58	1	f.kwope	11	6894	6
101413	15:58	1	f.sweel	12	7626	8
101413	15:58	1	f.grache	13	6728	4
101413	15:58	1	f.skoose	14	6178	4
101413	15:58	1	f.thwore	15	12258	6
101413	15:58	1	f.threech	16	6392	6
101413	15:58	1	f.thweel	17	4511	5
101413	15:58	1	f.snone	18	7233	7
101413	15:58	1	f.skeeth	19	7375	6
101413	15:58	1	f.chabe	20	10799	2
101413	15:58	1	f.smeesh	21	10888	3
101413	15:58	1	f.sneeve	22	3029	6
101413	15:58	1	f.swoche	23	6890	4
101413	15:58	1	f.thwafe	24	4350	7
101413	15:58	1	f.twame	25	5702	5
101413	15:58	1	f.proosh	26	18680	8
101413	15:58	1	f.foof	27	4689	9
101413	15:58	1	f.veeb	28	3268	5
101413	15:58	1	f.skoosh	29	4448	6
101413	15:58	1	f.yogue	30	4620	3
101413	15:58	1	f.droor	31	10242	3
101413	15:58	1	f.plook	32	3504	4
101413	15:58	1	f.sneege	33	3466	2
101413	15:58	1	f.shage	34	8390	5
101413	15:58	1	f.dwooze	35	21613	8
101413	15:58	1	f.pogue	36	3106	6
101413	15:58	1	f.thwale	37	3636	4
101413	15:58	1	f.floche	38	2745	4
101413	15:58	1	f.skeege	39	6201	3
101413	15:58	1	f.floob	40	4248	5
101413	15:58	1	f.veesh	41	3812	6
101413	15:58	1	f.speeve	42	2746	6
101413	15:58	1	f.prame	43	2714	5
101413	15:58	1	f.nothe	44	2891	3
101413	15:58	1	f.deeb	45	4221	7
101413	15:58	1	f.chogue	46	7035	5
101413	15:58	1	f.voop	47	2369	9
101413	15:58	1	f.sneef	48	1617	8
101413	15:58	1	f.thweeze	49	5213	6
101413	15:58	1	f.zoove	50	3667	8
101413	15:58	1	f.boove	51	2719	6
101413	15:58	1	f.treef	52	3296	4
101413	15:58	1	f.gweeze	53	3642	2
101413	15:58	1	f.swofe	54	2278	3
101413	15:58	1	f.yoshe	55	3313	2
101413	15:58	1	f.twole	56	5170	5
101413	15:58	1	f.snase	57	2506	6
101413	15:58	1	f.twashe	58	4540	4
101413	15:58	1	f.shroosh	59	3669	5
101413	15:58	1	f.drobe	60	1929	4
101413	15:58	1	r.limber	1	3806	7
101413	15:58	1	r.theory	2	3404	5
101413	15:58	1	r.manner	3	2450	8
101413	15:58	1	r.festive	4	3070	5
101413	15:58	1	r.weapon	5	2849	3
101413	15:58	1	r.lawsuit	6	2429	3
101413	15:58	1	r.gymnast	7	2082	8
101413	15:58	1	r.rage	8	2244	4
101413	15:58	1	r.legend	9	2680	8
101413	15:58	1	r.whore	10	2354	1
101413	15:58	1	r.zest	11	3186	3
101413	15:58	1	r.opinion	12	2169	5
101413	15:58	1	r.hydrant	13	2232	4
101413	15:58	1	r.luxury	14	3140	9
101413	15:58	1	r.gentle	15	1805	8
101413	15:58	1	r.corrupt	16	2003	2
101413	15:58	1	r.tidy	17	4088	7
101413	15:58	1	r.razor	18	2860	5
101413	15:58	1	r.food	19	1887	8
101413	15:58	1	r.dazzle	20	2305	8
101413	15:58	1	r.thrill	21	2563	6
101413	15:58	1	r.kids	22	2242	8
101413	15:58	1	r.astonished	23	2686	9
101413	15:58	1	r.dove	24	3345	5
101413	15:58	1	r.book	25	2241	6
101413	15:58	1	r.riot	26	2278	4
101413	15:58	1	r.riches	27	2072	5
101413	15:58	1	r.depressed	28	2987	3
101413	15:58	1	r.engine	29	2425	6
101413	15:58	1	r.aggressive	30	2166	4
101413	15:58	1	r.achievement	31	2797	8
101413	15:58	1	r.fame	32	2611	7
101413	15:58	1	r.anxious	33	5560	4
101413	15:58	1	r.destruction	34	2065	4
101413	15:58	1	r.abundance	35	3171	5
101413	15:58	1	r.computer	36	2339	5
101413	15:58	1	r.hand	37	1395	5
101413	15:58	1	r.vomit	38	2361	1
101413	15:58	1	r.lion	39	2008	7
101413	15:58	1	r.cheer	40	2566	8
101413	15:58	1	r.torture	41	2069	1
101413	15:58	1	r.dreadful	42	1904	2
101413	15:58	1	r.inferior	43	2521	4
101413	15:58	1	r.plane	44	2195	4
101413	15:58	1	r.glory	45	2408	7
101413	15:58	1	r.flabby	46	2230	3
101413	15:58	1	r.kick	47	2043	4
101413	15:58	1	r.dagger	48	1966	2
101413	15:58	1	r.powerful	49	1957	9
101413	15:58	1	r.outstanding	50	1605	8
101413	15:58	1	r.heart	51	1978	7
101413	15:58	1	r.lump	52	1417	5
101413	15:58	1	r.destroy	53	1638	4
101413	15:58	1	r.morbid	54	1530	4
101413	15:58	1	r.elbow	55	1794	5
101413	15:58	1	r.cliff	56	2752	6
101413	15:58	1	r.obesity	57	1807	3
101413	15:58	1	r.rainbow	58	1733	9
101413	15:58	1	r.stench	59	1878	3
101413	15:58	1	r.hardship	60	1928	5
101413	15:58	1	howtype	1	7159	4
101613	12:26	1	speed	1	10388	47
101613	12:26	1	error	2	1742	82
101613	12:26	1	whichhand	3	8478	right
101613	12:26	1	f.shoog	1	15174	5
101613	12:26	1	f.gweeg	2	7345	6
101613	12:26	1	f.thwome	3	3202	5
101613	12:26	1	f.twoof	4	4680	7
101613	12:26	1	f.gweel	5	4387	7
101613	12:26	1	f.prooge	6	6203	4
101613	12:26	1	f.drofe	7	2178	4
101613	12:26	1	f.skabe	8	4080	4
101613	12:26	1	f.flothe	9	2651	5
101613	12:26	1	f.thwade	10	2703	3
101613	12:26	1	f.zoche	11	4112	4
101613	12:26	1	f.throshe	12	2211	5
101613	12:26	1	f.voof	13	3032	6
101613	12:26	1	f.thave	14	3644	4
101613	12:26	1	f.stoche	15	4073	5
101613	12:26	1	f.flabe	16	2987	4
101613	12:26	1	f.dweel	17	2658	7
101613	12:26	1	f.droche	18	1934	5
101613	12:26	1	f.blafe	19	2318	6
101613	12:26	1	f.gwoge	20	2999	4
101613	12:26	1	f.gweeve	21	2406	4
101613	12:26	1	f.voob	22	4171	4
101613	12:26	1	f.kwoove	23	10211	5
101613	12:26	1	f.floge	24	2491	3
101613	12:26	1	f.broshe	25	2286	6
101613	12:26	1	f.sneeth	26	4046	5
101613	12:26	1	f.thweeze	27	2699	4
101613	12:26	1	f.shreel	28	2245	6
101613	12:26	1	f.nashe	29	2808	3
101613	12:26	1	f.thweeth	30	4086	5
101613	12:26	1	f.dwame	31	6241	6
101613	12:26	1	f.plake	32	2734	5
101613	12:26	1	f.breeb	33	3871	5
101613	12:26	1	f.mooth	34	3163	6
101613	12:26	1	f.dwoosh	35	3378	7
101613	12:26	1	f.spate	36	2481	3
101613	12:26	1	f.gleesh	37	1667	5
101613	12:26	1	f.froof	38	3326	6
101613	12:26	1	f.sloosh	39	2575	6
101613	12:26	1	f.drothe	40	2006	4
101613	12:26	1	f.dabe	41	2788	5
101613	12:26	1	f.sneed	42	2362	6
101613	12:26	1	f.preesh	43	3769	6
101613	12:26	1	f.seeb	44	4265	4
101613	12:26	1	f.smove	45	2093	5
101613	12:26	1	f.shogue	46	2199	4
101613	12:26	1	f.dweege	47	2628	4
101613	12:26	1	f.blothe	48	2889	5
101613	12:26	1	f.doche	49	4299	5
101613	12:26	1	f.kroche	50	2781	6
101613	12:26	1	f.poom	51	3324	5
101613	12:26	1	f.gwoof	52	2158	5
101613	12:26	1	f.gwogue	53	5421	4
101613	12:26	1	f.jeeb	54	2316	6
101613	12:26	1	f.dobe	55	2677	4
101613	12:26	1	f.fague	56	1991	4
101613	12:26	1	f.swoose	57	2334	5
101613	12:26	1	f.kwashe	58	4102	5
101613	12:26	1	f.frobe	59	2377	6
101613	12:26	1	f.yeeb	60	1743	7
101613	12:26	1	r.grief	1	7443	2
101613	12:26	1	r.nipple	2	3857	5
101613	12:26	1	r.computer	3	5053	7
101613	12:26	1	r.gloom	4	2850	2
101613	12:26	1	r.measles	5	3638	2
101613	12:26	1	r.adventure	6	4123	8
101613	12:26	1	r.nun	7	3356	4
101613	12:26	1	r.handsome	8	2541	8
101613	12:26	1	r.brother	9	6540	7
101613	12:26	1	r.hit	10	6614	2
101613	12:26	1	r.song	11	3269	9
101613	12:26	1	r.mildew	12	3672	4
101613	12:26	1	r.metal	13	2628	5
101613	12:26	1	r.sailboat	14	2560	6
101613	12:26	1	r.thief	15	4359	2
101613	12:26	1	r.truth	16	3079	5
101613	12:26	1	r.passion	17	7498	7
101613	12:26	1	r.displeased	18	3645	1
101613	12:26	1	r.handicap	19	4665	4
101613	12:26	1	r.surgery	20	2941	5
101613	12:26	1	r.cold	21	2230	5
101613	12:26	1	r.dawn	22	3419	6
101613	12:26	1	r.journal	23	2672	3
101613	12:26	1	r.knot	24	2611	4
101613	12:26	1	r.outrage	25	2841	2
101613	12:26	1	r.shy	26	2645	4
101613	12:26	1	r.haphazard	27	3089	4
101613	12:26	1	r.ambulance	28	6587	4
101613	12:26	1	r.achievement	29	2291	8
101613	12:26	1	r.frigid	30	2574	4
101613	12:26	1	r.nuisance	31	2669	1
101613	12:26	1	r.criminal	32	2073	1
101613	12:26	1	r.disgusted	33	1620	1
101613	12:26	1	r.sentiment	34	3768	6
101613	12:26	1	r.abduction	35	2296	1
101613	12:26	1	r.awed	36	3138	8
101613	12:26	1	r.event	37	3226	6
101613	12:26	1	r.rainbow	38	2119	7
101613	12:26	1	r.moral	39	3080	5
101613	12:26	1	r.volcano	40	2147	5
101613	12:26	1	r.butter	41	3570	5
101613	12:26	1	r.face	42	1802	5
101613	12:26	1	r.insect	43	2096	4
101613	12:26	1	r.lightning	44	2529	5
101613	12:26	1	r.greet	45	3642	5
101613	12:26	1	r.immature	46	3142	3
101613	12:26	1	r.tamper	47	2486	4
101613	12:26	1	r.insult	48	2057	2
101613	12:26	1	r.arrogant	49	1828	1
101613	12:26	1	r.gender	50	2105	5
101613	12:26	1	r.wagon	51	2010	5
101613	12:26	1	r.capable	52	4007	5
101613	12:26	1	r.lantern	53	1830	5
101613	12:26	1	r.tank	54	2370	5
101613	12:26	1	r.victory	55	2529	8
101613	12:26	1	r.board	56	6713	5
101613	12:26	1	r.poison	57	4084	1
101613	12:26	1	r.paper	58	2135	5
101613	12:26	1	r.selfish	59	2592	2
101613	12:26	1	r.terrible	60	4325	1
101613	12:26	1	howtype	1	8262	5
101713	10:58	1	speed	1	2762	59
101713	10:58	1	error	2	2065	88
101713	10:58	1	whichhand	3	7284	right
101713	10:58	1	r.skijump	1	12105	4
101713	10:58	1	r.glamour	2	2541	4
101713	10:58	1	r.eat	3	2774	9
101713	10:58	1	r.penthouse	4	1853	8
101713	10:58	1	r.fabric	5	1777	9
101713	10:58	1	r.intruder	6	3903	8
101713	10:58	1	r.lost	7	1969	9
101713	10:58	1	r.museum	8	1344	8
101713	10:58	1	r.sapphire	9	1584	8
101713	10:58	1	r.mighty	10	2430	8
101713	10:58	1	r.garment	11	1266	8
101713	10:58	1	r.despairing	12	1717	7
101713	10:58	1	r.filth	13	1542	9
101713	10:58	1	r.rifle	14	1510	8
101713	10:58	1	r.tease	15	1327	9
101713	10:58	1	r.defeated	16	2879	9
101713	10:58	1	r.leprosy	17	2434	6
101713	10:58	1	r.razor	18	1462	9
101713	10:58	1	r.gangrene	19	2033	5
101713	10:58	1	r.pleasure	20	2062	9
101713	10:58	1	r.garter	21	1721	7
101713	10:58	1	r.annoy	22	1466	9
101713	10:58	1	r.rotten	23	1324	9
101713	10:58	1	r.flirt	24	7677	8
101713	10:58	1	r.trumpet	25	1793	7
101713	10:58	1	r.astronaut	26	1551	8
101713	10:58	1	r.crutch	27	2622	5
101713	10:58	1	r.mutation	28	1604	8
101713	10:58	1	r.lonely	29	1417	8
101713	10:58	1	r.pamphlet	30	1390	8
101713	10:58	1	r.grenade	31	1708	8
101713	10:58	1	r.rock	32	1342	8
101713	10:58	1	r.sleep	33	1366	8
101713	10:58	1	r.body	34	1285	9
101713	10:58	1	r.devoted	35	1247	8
101713	10:58	1	r.gun	36	2538	8
101713	10:58	1	r.wish	37	2667	8
101713	10:58	1	r.tornado	38	1614	8
101713	10:58	1	r.scalding	39	5955	5
101713	10:58	1	r.rat	40	2244	5
101713	10:58	1	r.bath	41	1512	9
101713	10:58	1	r.talent	42	1449	9
101713	10:58	1	r.bright	43	3212	9
101713	10:58	1	r.clock	44	1393	8
101713	10:58	1	r.shotgun	45	8999	5
101713	10:58	1	r.coffin	46	2487	4
101713	10:58	1	r.helpless	47	1633	4
101713	10:58	1	r.massacre	48	2357	4
101713	10:58	1	r.hope	49	1413	9
101713	10:58	1	r.resent	50	2714	4
101713	10:58	1	r.news	51	3859	8
101713	10:58	1	r.riot	52	3374	4
101713	10:58	1	r.sexy	53	2302	8
101713	10:58	1	r.pancakes	54	2911	9
101713	10:58	1	r.memory	55	1440	9
101713	10:58	1	r.bloody	56	1517	4
101713	10:58	1	r.toy	57	1605	8
101713	10:58	1	r.snuggle	58	2371	7
101713	10:58	1	r.acceptance	59	4355	9
101713	10:58	1	r.aloof	60	2627	5
101713	10:58	1	f.speeb	1	9174	3
101713	10:58	1	f.dwoon	2	1527	4
101713	10:58	1	f.plofe	3	5960	3
101713	10:58	1	f.veek	4	2976	3
101713	10:58	1	f.shrare	5	2382	5
101713	10:58	1	f.pleege	6	2725	3
101713	10:58	1	f.sloog	7	1390	2
101713	10:58	1	f.smoop	8	1924	2
101713	10:58	1	f.zothe	9	1246	2
101713	10:58	1	f.peeg	10	1193	2
101713	10:58	1	f.dwook	11	1638	2
101713	10:58	1	f.twoge	12	1187	2
101713	10:58	1	f.bave	13	1777	2
101713	10:58	1	f.pleech	14	1271	2
101713	10:58	1	f.pame	15	2418	2
101713	10:58	1	f.brathe	16	3687	3
101713	10:58	1	f.smathe	17	1106	2
101713	10:58	1	f.dwake	18	2227	2
101713	10:58	1	f.skeeve	19	3160	2
101713	10:58	1	f.preet	20	2335	2
101713	10:58	1	f.dwome	21	1944	2
101713	10:58	1	f.spoot	22	1807	2
101713	10:58	1	f.fafe	23	1669	2
101713	10:58	1	f.glose	24	1664	2
101713	10:58	1	f.zooth	25	2410	2
101713	10:58	1	f.thwave	26	1456	2
101713	10:58	1	f.sheege	27	1963	2
101713	10:58	1	f.snobe	28	1761	2
101713	10:58	1	f.shobe	29	1337	2
101713	10:58	1	f.bloog	30	1393	2
101713	10:58	1	f.vade	31	1654	3
101713	10:58	1	f.snave	32	1170	2
101713	10:58	1	f.sooch	33	1056	2
101713	10:58	1	f.blobe	34	1228	2
101713	10:58	1	f.freech	35	1800	2
101713	10:58	1	f.krooch	36	1478	2
101713	10:58	1	f.tove	37	1664	2
101713	10:58	1	f.pleek	38	1403	2
101713	10:58	1	f.gweep	39	1457	2
101713	10:58	1	f.thape	40	1300	2
101713	10:58	1	f.poog	41	1718	2
101713	10:58	1	f.ploove	42	3734	2
101713	10:58	1	f.blothe	43	2207	2
101713	10:58	1	f.dwoor	44	1629	2
101713	10:58	1	f.kwave	45	1593	2
101713	10:58	1	f.thwote	46	1319	2
101713	10:58	1	f.speeth	47	1488	2
101713	10:58	1	f.thwode	48	1618	2
101713	10:58	1	f.twool	49	927	2
101713	10:58	1	f.snade	50	1223	2
101713	10:58	1	f.floove	51	1579	2
101713	10:58	1	f.klofe	52	1009	2
101713	10:58	1	f.gwoge	53	831	2
101713	10:58	1	f.vashe	54	3706	2
101713	10:58	1	f.freeth	55	941	2
101713	10:58	1	f.kreech	56	1245	2
101713	10:58	1	f.smeeth	57	1175	2
101713	10:58	1	f.noshe	58	919	2
101713	10:58	1	f.skogue	59	847	2
101713	10:58	1	f.zood	60	1290	2
101713	10:58	1	howtype	1	7171	7
101713	12:31	1	speed	1	3186	49
101713	12:31	1	error	2	2587	97
101713	12:31	1	whichhand	3	6746	right
101713	12:31	1	f.zathe	1	13721	3
101713	12:31	1	f.glook	2	7598	5
101713	12:31	1	f.yone	3	3598	5
101713	12:31	1	f.klode	4	3460	4
101713	12:31	1	f.zake	5	3472	3
101713	12:31	1	f.poom	6	2435	3
101713	12:31	1	f.thwake	7	3840	5
101713	12:31	1	f.troge	8	3325	2
101713	12:31	1	f.looch	9	1750	2
101713	12:31	1	f.yague	10	2277	2
101713	12:31	1	f.skashe	11	6344	5
101713	12:31	1	f.snooge	12	5337	5
101713	12:31	1	f.dweeg	13	2699	4
101713	12:31	1	f.twogue	14	3852	5
101713	12:31	1	f.nooge	15	2089	4
101713	12:31	1	f.plooch	16	2843	4
101713	12:31	1	f.sloge	17	1927	2
101713	12:31	1	f.throom	18	2815	5
101713	12:31	1	f.krore	19	2229	5
101713	12:31	1	f.drogue	20	2161	1
101713	12:31	1	f.sposhe	21	2880	6
101713	12:31	1	f.dogue	22	6659	4
101713	12:31	1	f.pabe	23	3063	5
101713	12:31	1	f.yoosh	24	2931	5
101713	12:31	1	f.thwale	25	2515	5
101713	12:31	1	f.cheed	26	1788	5
101713	12:31	1	f.yeeg	27	2091	5
101713	12:31	1	f.bloove	28	2821	6
101713	12:31	1	f.snave	29	1851	3
101713	12:31	1	f.snooth	30	2574	4
101713	12:31	1	f.thove	31	2117	5
101713	12:31	1	f.shrope	32	2174	5
101713	12:31	1	f.chothe	33	2813	5
101713	12:31	1	f.kwoop	34	5459	6
101713	12:31	1	f.prame	35	2151	6
101713	12:31	1	f.sneed	36	2230	4
101713	12:31	1	f.blool	37	1851	5
101713	12:31	1	f.shroshe	38	3767	5
101713	12:31	1	f.theeve	39	3806	4
101713	12:31	1	f.smeef	40	2428	4
101713	12:31	1	f.slache	41	2353	4
101713	12:31	1	f.sheeb	42	1545	5
101713	12:31	1	f.smofe	43	2488	4
101713	12:31	1	f.floop	44	6514	4
101713	12:31	1	f.soshe	45	3245	4
101713	12:31	1	f.kwase	46	2713	4
101713	12:31	1	f.bleeve	47	2035	5
101713	12:31	1	f.sleed	48	1455	5
101713	12:31	1	f.wooth	49	1154	5
101713	12:31	1	f.prote	50	3714	4
101713	12:31	1	f.kwoshe	51	2115	5
101713	12:31	1	f.twashe	52	6171	5
101713	12:31	1	f.vobe	53	1820	4
101713	12:31	1	f.smeeve	54	1409	4
101713	12:31	1	f.flafe	55	1943	6
101713	12:31	1	f.thwode	56	1726	5
101713	12:31	1	f.zeer	57	4358	4
101713	12:31	1	f.shache	58	4526	6
101713	12:31	1	f.voosh	59	2839	4
101713	12:31	1	f.jashe	60	2852	6
101713	12:31	1	r.watch	1	9741	6
101713	12:31	1	r.cash	2	8984	7
101713	12:31	1	r.voyage	3	5945	6
101713	12:31	1	r.incentive	4	3498	5
101713	12:31	1	r.diploma	5	4372	7
101713	12:31	1	r.cork	6	3276	5
101713	12:31	1	r.annoy	7	4446	4
101713	12:31	1	r.nature	8	6387	8
101713	12:31	1	r.bride	9	2403	8
101713	12:31	1	r.medicine	10	3129	6
101713	12:31	1	r.sad	11	4537	1
101713	12:31	1	r.reserved	12	6346	5
101713	12:31	1	r.plant	13	2244	6
101713	12:31	1	r.kind	14	3783	9
101713	12:31	1	r.liberty	15	2334	7
101713	12:31	1	r.anguished	16	3486	4
101713	12:31	1	r.alone	17	3745	4
101713	12:31	1	r.health	18	2962	7
101713	12:31	1	r.abortion	19	4656	2
101713	12:31	1	r.divorce	20	4022	2
101713	12:31	1	r.bereavement	21	2563	4
101713	12:31	1	r.dirt	22	1731	4
101713	12:31	1	r.mildew	23	2667	5
101713	12:31	1	r.ambulance	24	3526	6
101713	12:31	1	r.bright	25	2663	7
101713	12:31	1	r.autumn	26	2026	9
101713	12:31	1	r.crucify	27	5302	3
101713	12:31	1	r.building	28	2409	5
101713	12:31	1	r.discouraged	29	3069	4
101713	12:31	1	r.rancid	30	2530	2
101713	12:31	1	r.vandal	31	1738	2
101713	12:31	1	r.lucky	32	2274	6
101713	12:31	1	r.crime	33	1990	3
101713	12:31	1	r.poetry	34	1748	6
101713	12:31	1	r.devoted	35	2076	8
101713	12:31	1	r.hard	36	3286	5
101713	12:31	1	r.people	37	2505	6
101713	12:31	1	r.saint	38	2427	5
101713	12:31	1	r.education	39	2760	6
101713	12:31	1	r.war	40	1847	3
101713	12:31	1	r.hostage	41	1563	3
101713	12:31	1	r.nervous	42	2146	4
101713	12:31	1	r.bastard	43	2561	1
101713	12:31	1	r.selfish	44	2744	2
101713	12:31	1	r.appliance	45	1984	5
101713	12:31	1	r.home	46	2183	8
101713	12:31	1	r.garter	47	2581	5
101713	12:31	1	r.blase	48	1883	5
101713	12:31	1	r.hate	49	1782	1
101713	12:31	1	r.penis	50	4940	5
101713	12:31	1	r.secure	51	3005	7
101713	12:31	1	r.displeased	52	2387	4
101713	12:31	1	r.foam	53	2442	5
101713	12:31	1	r.derelict	54	3126	4
101713	12:31	1	r.doll	55	2319	5
101713	12:31	1	r.salad	56	1696	5
101713	12:31	1	r.gloom	57	3018	2
101713	12:31	1	r.scorching	58	5551	3
101713	12:31	1	r.measles	59	4392	2
101713	12:31	1	r.invader	60	3902	2
101713	12:31	1	howtype	1	34110	4
101813	11:57	1	speed	1	4336	60
101813	11:57	1	error	2	1991	93
101813	11:57	1	whichhand	3	6458	right
101813	12:01	1	speed	1	3052	60
101813	12:01	1	error	2	2377	93
101813	12:01	1	whichhand	3	3288	Right
101813	12:01	1	howtype	1	2167	0
102113	09:54	1	speed	1	23140	43
102113	09:54	1	error	2	1820	95
102113	09:54	1	whichhand	3	8480	right
102113	09:54	1	f.gloog	1	18990	5
102113	09:54	1	f.klode	2	8442	5
102113	09:54	1	f.chabe	3	2568	4
102113	09:54	1	f.yashe	4	3239	6
102113	09:54	1	f.wague	5	2092	4
102113	09:54	1	f.skeeth	6	2190	4
102113	09:54	1	f.proom	7	1517	6
102113	09:54	1	f.spoom	8	1709	6
102113	09:54	1	f.smoop	9	2207	7
102113	09:54	1	f.looch	10	2405	3
102113	09:54	1	f.sneese	11	2746	7
102113	09:54	1	f.gleesh	12	1178	7
102113	09:54	1	f.throod	13	1440	3
102113	09:54	1	f.stafe	14	1892	7
102113	09:54	1	f.shrooge	15	1763	3
102113	09:54	1	f.vobe	16	1514	6
102113	09:54	1	f.spoop	17	1355	7
102113	09:54	1	f.speege	18	1321	7
102113	09:54	1	f.grashe	19	1338	3
102113	09:54	1	f.smobe	20	1137	3
102113	09:54	1	f.kloob	21	1538	5
102113	09:54	1	f.groog	22	914	5
102113	09:54	1	f.freeg	23	1765	6
102113	09:54	1	f.swole	24	1657	3
102113	09:54	1	f.kreege	25	1013	3
102113	09:54	1	f.twoge	26	1138	3
102113	09:54	1	f.thode	27	1721	6
102113	09:54	1	f.tweel	28	739	6
102113	09:54	1	f.shroshe	29	1683	5
102113	09:54	1	f.frove	30	1300	6
102113	09:54	1	f.gwade	31	902	6
102113	09:54	1	f.krore	32	1671	3
102113	09:54	1	f.peesh	33	2018	7
102113	09:54	1	f.swafe	34	1057	7
102113	09:54	1	f.throge	35	1947	3
102113	09:54	1	f.pleek	36	1513	7
102113	09:54	1	f.twoog	37	1330	6
102113	09:54	1	f.frage	38	1306	3
102113	09:54	1	f.dwoose	39	769	6
102113	09:54	1	f.twave	40	1072	4
102113	09:54	1	f.zoof	41	1027	6
102113	09:54	1	f.twoof	42	686	6
102113	09:54	1	f.fleech	43	641	6
102113	09:54	1	f.smame	44	1116	7
102113	09:54	1	f.togue	45	820	7
102113	09:54	1	f.breer	46	1528	3
102113	09:54	1	f.klogue	47	1191	3
102113	09:54	1	f.smoon	48	1245	4
102113	09:54	1	f.gweeve	49	776	4
102113	09:54	1	f.pogue	50	1078	6
102113	09:54	1	f.gleek	51	493	6
102113	09:54	1	f.klabe	52	1455	3
102113	09:54	1	f.thweese	53	610	3
102113	09:54	1	f.sleesh	54	502	3
102113	09:54	1	f.yeeve	55	471	3
102113	09:54	1	f.sneege	56	1298	6
102113	09:54	1	f.mabe	57	499	6
102113	09:54	1	f.prome	58	868	4
102113	09:54	1	f.frague	59	1190	3
102113	09:54	1	f.kloog	60	1301	4
102113	09:54	1	r.tidy	1	3769	8
102113	09:54	1	r.obey	2	905	8
102113	09:54	1	r.circus	3	1658	5
102113	09:54	1	r.disturb	4	1541	4
102113	09:54	1	r.pollute	5	1717	3
102113	09:54	1	r.bowl	6	2151	6
102113	09:54	1	r.muddy	7	1190	5
102113	09:54	1	r.rain	8	2035	7
102113	09:54	1	r.malice	9	1913	4
102113	09:54	1	r.corrupt	10	1754	2
102113	09:54	1	r.family	11	1625	9
102113	09:54	1	r.dreadful	12	1958	1
102113	09:54	1	r.whistle	13	1438	7
102113	09:54	1	r.handsome	14	1778	8
102113	09:54	1	r.relaxed	15	3360	7
102113	09:54	1	r.storm	16	1848	1
102113	09:54	1	r.bandage	17	2939	4
102113	09:54	1	r.promotion	18	1658	9
102113	09:54	1	r.soft	19	1216	9
102113	09:54	1	r.brother	20	1013	9
102113	09:54	1	r.surprised	21	1273	9
102113	09:54	1	r.overcast	22	1444	3
102113	09:54	1	r.syphilis	23	2143	1
102113	09:54	1	r.radio	24	1942	9
102113	09:54	1	r.mangle	25	1662	2
102113	09:54	1	r.prestige	26	1785	9
102113	09:54	1	r.liberty	27	1695	9
102113	09:54	1	r.wicked	28	1273	1
102113	09:54	1	r.teacher	29	2571	7
102113	09:54	1	r.idol	30	1563	5
102113	09:54	1	r.house	31	1444	9
102113	09:54	1	r.applause	32	1051	9
102113	09:54	1	r.aroused	33	2234	5
102113	09:54	1	r.cemetery	34	1524	1
102113	09:54	1	r.mail	35	2638	7
102113	09:54	1	r.feeble	36	1275	7
102113	09:54	1	r.win	37	1685	9
102113	09:54	1	r.untroubled	38	1800	9
102113	09:54	1	r.crutch	39	1398	4
102113	09:54	1	r.basket	40	1371	6
102113	09:54	1	r.bird	41	1634	6
102113	09:54	1	r.ignorance	42	2238	5
102113	09:54	1	r.thermometer	43	1363	5
102113	09:54	1	r.cheer	44	1625	8
102113	09:54	1	r.employment	45	1084	8
102113	09:54	1	r.knife	46	1807	5
102113	09:54	1	r.thief	47	1805	1
102113	09:54	1	r.autumn	48	1771	9
102113	09:54	1	r.coward	49	1513	2
102113	09:54	1	r.cut	50	1851	5
102113	09:54	1	r.wine	51	1918	5
102113	09:54	1	r.upset	52	1781	3
102113	09:54	1	r.hardship	53	1196	3
102113	09:54	1	r.devil	54	1625	1
102113	09:54	1	r.runner	55	2813	8
102113	09:54	1	r.sexy	56	2291	8
102113	09:54	1	r.hairdryer	57	1229	8
102113	09:54	1	r.engine	58	1858	6
102113	09:54	1	r.sweetheart	59	1357	9
102113	09:54	1	r.owl	60	1116	9
102113	09:54	1	howtype	1	5036	4
102113	11:34	1	speed	1	2662	43
102113	11:34	1	error	2	1986	88
102113	11:34	1	whichhand	3	8384	right
102113	11:34	1	r.infatuation	1	10660	5
102113	11:34	1	r.couple	2	8690	6
102113	11:34	1	r.assault	3	2830	1
102113	11:34	1	r.delight	4	2227	9
102113	11:34	1	r.lamp	5	1839	5
102113	11:34	1	r.surgery	6	5884	1
102113	11:34	1	r.key	7	1623	5
102113	11:34	1	r.table	8	916	5
102113	11:34	1	r.youth	9	4541	8
102113	11:34	1	r.vision	10	6022	5
102113	11:34	1	r.fat	11	3940	2
102113	11:34	1	r.annoy	12	1830	1
102113	11:34	1	r.butterfly	13	1738	8
102113	11:34	1	r.frustrated	14	1634	1
102113	11:34	1	r.jolly	15	2150	9
102113	11:34	1	r.spray	16	2270	5
102113	11:34	1	r.outrage	17	2625	1
102113	11:34	1	r.despise	18	1654	1
102113	11:34	1	r.affection	19	3674	9
102113	11:34	1	r.bright	20	1949	5
102113	11:34	1	r.fungus	21	2397	1
102113	11:34	1	r.lust	22	4515	7
102113	11:34	1	r.alone	23	2236	2
102113	11:34	1	r.kitten	24	1657	9
102113	11:34	1	r.unhappy	25	1317	1
102113	11:34	1	r.melody	26	1293	5
102113	11:34	1	r.exercise	27	8735	5
102113	11:34	1	r.fascinate	28	4945	5
102113	11:34	1	r.obnoxious	29	1978	1
102113	11:34	1	r.selfish	30	2320	1
102113	11:34	1	r.time	31	2545	5
102113	11:34	1	r.idol	32	2265	9
102113	11:34	1	r.fire	33	2404	2
102113	11:34	1	r.treat	34	2098	8
102113	11:34	1	r.fear	35	1700	2
102113	11:34	1	r.athletics	36	2013	5
102113	11:34	1	r.deformed	37	1986	2
102113	11:34	1	r.family	38	1817	8
102113	11:34	1	r.guillotine	39	1886	1
102113	11:34	1	r.nursery	40	3376	6
102113	11:34	1	r.disgusted	41	1750	1
102113	11:34	1	r.robber	42	3502	2
102113	11:34	1	r.burdened	43	2406	2
102113	11:34	1	r.punishment	44	1398	2
102113	11:34	1	r.paradise	45	1692	8
102113	11:34	1	r.voyage	46	3222	5
102113	11:34	1	r.teacher	47	1660	5
102113	11:34	1	r.sheltered	48	2830	4
102113	11:34	1	r.lamb	49	1371	5
102113	11:34	1	r.wasp	50	2226	1
102113	11:34	1	r.volcano	51	1542	1
102113	11:34	1	r.nipple	52	2014	5
102113	11:34	1	r.travel	53	3603	8
102113	11:34	1	r.mischief	54	5898	4
102113	11:34	1	r.lazy	55	2732	4
102113	11:34	1	r.rotten	56	1997	1
102113	11:34	1	r.egg	57	1835	5
102113	11:34	1	r.deceit	58	3254	1
102113	11:34	1	r.contents	59	1819	5
102113	11:34	1	r.dump	60	2656	1
102113	11:34	1	f.snoom	1	10929	3
102113	11:34	1	f.grage	2	3668	3
102113	11:34	1	f.glooge	3	5936	6
102113	11:34	1	f.blothe	4	2730	2
102113	11:34	1	f.prake	5	4018	6
102113	11:34	1	f.boog	6	2447	4
102113	11:34	1	f.speeve	7	2580	4
102113	11:34	1	f.broshe	8	1618	6
102113	11:34	1	f.frague	9	2495	7
102113	11:34	1	f.dwook	10	1520	3
102113	11:34	1	f.smone	11	2386	4
102113	11:34	1	f.flave	12	1304	6
102113	11:34	1	f.thweek	13	3594	6
102113	11:34	1	f.weeth	14	1880	4
102113	11:34	1	f.brooge	15	4242	4
102113	11:34	1	f.bloshe	16	1783	4
102113	11:34	1	f.gweeb	17	2805	4
102113	11:34	1	f.snofe	18	2283	4
102113	11:34	1	f.yofe	19	4085	3
102113	11:34	1	f.kweech	20	9674	2
102113	11:34	1	f.grobe	21	1917	6
102113	11:34	1	f.slobe	22	2086	6
102113	11:34	1	f.wothe	23	5104	4
102113	11:34	1	f.thoob	24	9732	5
102113	11:34	1	f.skoove	25	5118	6
102113	11:34	1	f.steeb	26	6384	6
102113	11:34	1	f.klope	27	3256	5
102113	11:34	1	f.plave	28	3956	4
102113	11:34	1	f.skoom	29	5260	4
102113	11:34	1	f.groog	30	3272	3
102113	11:34	1	f.klape	31	1676	6
102113	11:34	1	f.wache	32	3230	6
102113	11:34	1	f.kloop	33	6123	6
102113	11:34	1	f.feeb	34	2685	3
102113	11:34	1	f.thrare	35	2551	5
102113	11:34	1	f.speep	36	4687	6
102113	11:34	1	f.klogue	37	5058	3
102113	11:34	1	f.jache	38	2982	7
102113	11:34	1	f.throob	39	3030	4
102113	11:34	1	f.zoke	40	4106	5
102113	11:34	1	f.shrobe	41	3541	6
102113	11:34	1	f.thrale	42	10117	5
102113	11:34	1	f.gwoor	43	1297	4
102113	11:34	1	f.bloob	44	1970	4
102113	11:34	1	f.proop	45	2665	3
102113	11:34	1	f.trake	46	3365	5
102113	11:34	1	f.zeeg	47	2924	6
102113	11:34	1	f.brothe	48	2933	6
102113	11:34	1	f.soche	49	3358	6
102113	11:34	1	f.theeb	50	4382	6
102113	11:34	1	f.jooch	51	2789	2
102113	11:34	1	f.yoche	52	2964	3
102113	11:34	1	f.smofe	53	2595	4
102113	11:34	1	f.zate	54	1537	5
102113	11:34	1	f.smeeth	55	2169	4
102113	11:34	1	f.prooth	56	4144	4
102113	11:34	1	f.stafe	57	1937	6
102113	11:34	1	f.dwoot	58	5465	4
102113	11:34	1	f.yashe	59	1733	5
102113	11:34	1	f.greech	60	4229	4
102113	11:34	1	howtype	1	7808	4
102113	12:50	1	speed	1	4196	24
102113	12:50	1	error	2	4787	91
102113	12:50	1	whichhand	3	7364	right
102113	12:50	1	r.bed	1	10587	9
102113	12:50	1	r.diver	2	5940	3
102113	12:50	1	r.fireworks	3	3070	7
102113	12:50	1	r.absurd	4	4713	4
102113	12:50	1	r.adventure	5	5339	7
102113	12:50	1	r.fault	6	5372	1
102113	12:50	1	r.deceit	7	2629	1
102113	12:50	1	r.scissors	8	3537	5
102113	12:50	1	r.execution	9	2298	1
102113	12:50	1	r.hand	10	2755	5
102113	12:50	1	r.icebox	11	2700	5
102113	12:50	1	r.handicap	12	4197	5
102113	12:50	1	r.pride	13	3116	8
102113	12:50	1	r.reptile	14	3374	6
102113	12:50	1	r.answer	15	4301	7
102113	12:50	1	r.louse	16	4464	1
102113	12:50	1	r.trust	17	2611	8
102113	12:50	1	r.messy	18	3208	4
102113	12:50	1	r.news	19	2990	5
102113	12:50	1	r.discomfort	20	12917	2
102113	12:50	1	r.graduate	21	3458	9
102113	12:50	1	r.present	22	1942	8
102113	12:50	1	r.insect	23	3286	4
102113	12:50	1	r.gold	24	2641	7
102113	12:50	1	r.window	25	2749	7
102113	12:50	1	r.magical	26	2469	8
102113	12:50	1	r.rude	27	3953	3
102113	12:50	1	r.greet	28	2161	6
102113	12:50	1	r.severe	29	1560	1
102113	12:50	1	r.muddy	30	1911	4
102113	12:50	1	r.insolent	31	5648	3
102113	12:50	1	r.razor	32	1437	2
102113	12:50	1	r.roach	33	2041	1
102113	12:50	1	r.bird	34	4501	6
102113	12:50	1	r.scandal	35	1952	1
102113	12:50	1	r.cell	36	3327	8
102113	12:50	1	r.hydrant	37	2400	7
102113	12:50	1	r.memory	38	1926	8
102113	12:50	1	r.kids	39	2846	6
102113	12:50	1	r.treat	40	1986	7
102113	12:50	1	r.whistle	41	2336	5
102113	12:50	1	r.name	42	2161	8
102113	12:50	1	r.dinner	43	9032	8
102113	12:50	1	r.vacation	44	4951	9
102113	12:50	1	r.lucky	45	6855	8
102113	12:50	1	r.scared	46	6844	2
102113	12:50	1	r.passion	47	4161	7
102113	12:50	1	r.decompose	48	1546	1
102113	12:50	1	r.cockroach	49	1177	1
102113	12:50	1	r.angel	50	2159	9
102113	12:50	1	r.fur	51	1622	8
102113	12:50	1	r.guilty	52	1915	4
102113	12:50	1	r.alive	53	2300	7
102113	12:50	1	r.lawn	54	2374	6
102113	12:50	1	r.trouble	55	1772	3
102113	12:50	1	r.fat	56	2052	2
102113	12:50	1	r.trash	57	1496	2
102113	12:50	1	r.radiator	58	2097	5
102113	12:50	1	r.impair	59	2995	3
102113	12:50	1	r.chin	60	1473	5
102113	12:50	1	f.throve	1	5840	5
102113	12:50	1	f.klode	2	3133	5
102113	12:50	1	f.zeeth	3	1910	5
102113	12:50	1	f.sague	4	2023	5
102113	12:50	1	f.cheel	5	1124	5
102113	12:50	1	f.jothe	6	6381	5
102113	12:50	1	f.kloop	7	14396	5
102113	12:50	1	f.swogue	8	6150	5
102113	12:50	1	f.voge	9	1998	5
102113	12:50	1	f.vooge	10	1349	5
102113	12:50	1	f.swoge	11	1164	5
102113	12:50	1	f.peeb	12	6323	4
102113	12:50	1	f.skooth	13	7629	5
102113	12:50	1	f.zeet	14	2820	5
102113	12:50	1	f.snoom	15	23760	6
102113	12:50	1	f.dwape	16	6903	4
102113	12:50	1	f.kweeze	17	10218	3
102113	12:50	1	f.frooge	18	5778	5
102113	12:50	1	f.gwore	19	3490	5
102113	12:50	1	f.wothe	20	1292	5
102113	12:50	1	f.toge	21	1782	5
102113	12:50	1	f.jashe	22	4332	5
102113	12:50	1	f.shreeze	23	6453	6
102113	12:50	1	f.thwoon	24	4195	5
102113	12:50	1	f.dwashe	25	4865	5
102113	12:50	1	f.mobe	26	2868	5
102113	12:50	1	f.dweel	27	952	5
102113	12:50	1	f.joosh	28	1039	5
102113	12:50	1	f.snade	29	1563	5
102113	12:50	1	f.choom	30	1378	5
102113	12:50	1	f.blothe	31	832	5
102113	12:50	1	f.sweese	32	2845	5
102113	12:50	1	f.snooch	33	704	5
102113	12:50	1	f.jooch	34	1129	5
102113	12:50	1	f.gache	35	1049	5
102113	12:50	1	f.dwathe	36	1085	5
102113	12:50	1	f.slole	37	695	5
102113	12:50	1	f.smoon	38	1800	6
102113	12:50	1	f.smoose	39	4278	6
102113	12:50	1	f.thwove	40	1489	5
102113	12:50	1	f.stoob	41	3147	5
102113	12:50	1	f.slome	42	7355	5
102113	12:50	1	f.throche	43	949	5
102113	12:50	1	f.dogue	44	4364	5
102113	12:50	1	f.gwane	45	836	5
102113	12:50	1	f.frashe	46	728	5
102113	12:50	1	f.thrale	47	544	5
102113	12:50	1	f.thwothe	48	599	5
102113	12:50	1	f.ploche	49	1020	5
102113	12:50	1	f.meeth	50	6537	5
102113	12:50	1	f.twoop	51	3323	5
102113	12:50	1	f.bague	52	732	5
102113	12:50	1	f.smood	53	1268	5
102113	12:50	1	f.chool	54	6655	5
102113	12:50	1	f.sleese	55	1492	5
102113	12:50	1	f.shrare	56	5909	5
102113	12:50	1	f.glole	57	2984	5
102113	12:50	1	f.gwooth	58	2055	5
102113	12:50	1	f.stashe	59	683	5
102113	12:50	1	f.dweeth	60	2476	5
102113	12:50	1	howtype	1	14070	4
102113	16:31	1	speed	1	2586	45
102113	16:31	1	error	2	1879	88
102113	16:31	1	whichhand	3	7905	Right
102113	16:31	1	f.thoge	1	10809	5
102113	16:31	1	f.zeep	2	4913	9
102113	16:31	1	f.twove	3	6507	6
102113	16:31	1	f.snoosh	4	4614	3
102113	16:31	1	f.thweed	5	4204	5
102113	16:31	1	f.blafe	6	4738	3
102113	16:31	1	f.plare	7	4163	5
102113	16:31	1	f.krooge	8	6739	4
102113	16:31	1	f.glole	9	2869	5
102113	16:31	1	f.threel	10	5312	7
102113	16:31	1	f.tweeg	11	4610	5
102113	16:31	1	f.shreeg	12	7495	5
102113	16:31	1	f.dwoor	13	2428	5
102113	16:31	1	f.shrage	14	1736	5
102113	16:31	1	f.thale	15	3272	5
102113	16:31	1	f.smome	16	2924	9
102113	16:31	1	f.thrage	17	4445	1
102113	16:31	1	f.shrogue	18	3569	4
102113	16:31	1	f.frave	19	2737	5
102113	16:31	1	f.thode	20	2650	5
102113	16:31	1	f.spoosh	21	4406	8
102113	16:31	1	f.thwole	22	4180	5
102113	16:31	1	f.bloosh	23	4051	7
102113	16:31	1	f.foob	24	1703	5
102113	16:31	1	f.mathe	25	3913	7
102113	16:31	1	f.gwoob	26	3275	6
102113	16:31	1	f.zache	27	2174	5
102113	16:31	1	f.dwoop	28	3461	3
102113	16:31	1	f.twooch	29	2809	3
102113	16:31	1	f.shroom	30	2214	5
102113	16:31	1	f.swooge	31	2675	5
102113	16:31	1	f.gleesh	32	2398	4
102113	16:31	1	f.thwose	33	2020	5
102113	16:31	1	f.bleege	34	2497	5
102113	16:31	1	f.draze	35	1795	5
102113	16:31	1	f.skooth	36	2833	6
102113	16:31	1	f.shrave	37	3397	6
102113	16:31	1	f.breege	38	1556	5
102113	16:31	1	f.kwame	39	4283	7
102113	16:31	1	f.zeesh	40	1702	5
102113	16:31	1	f.twoof	41	2128	5
102113	16:31	1	f.yooge	42	4944	8
102113	16:31	1	f.soche	43	1473	5
102113	16:31	1	f.stobe	44	3851	5
102113	16:31	1	f.kwase	45	1968	5
102113	16:31	1	f.grashe	46	3094	3
102113	16:31	1	f.chabe	47	4456	5
102113	16:31	1	f.pleeth	48	2134	5
102113	16:31	1	f.skame	49	2838	1
102113	16:31	1	f.bloof	50	4874	7
102113	16:31	1	f.throove	51	1734	5
102113	16:31	1	f.trogue	52	2767	5
102113	16:31	1	f.shooch	53	1382	5
102113	16:31	1	f.kloosh	54	1060	5
102113	16:31	1	f.roshe	55	1367	5
102113	16:31	1	f.moshe	56	3477	3
102113	16:31	1	f.flothe	57	2232	6
102113	16:31	1	f.thwoche	58	1349	5
102113	16:31	1	f.shague	59	1052	5
102113	16:31	1	f.neesh	60	2111	6
102113	16:31	1	r.dump	1	7431	8
102113	16:31	1	r.surprised	2	6237	5
102113	16:31	1	r.ocean	3	2002	9
102113	16:31	1	r.village	4	3624	6
102113	16:31	1	r.jug	5	3078	5
102113	16:31	1	r.fraud	6	1593	1
102113	16:31	1	r.nonsense	7	4958	5
102113	16:31	1	r.kerosene	8	2734	5
102113	16:31	1	r.detail	9	3103	5
102113	16:31	1	r.cozy	10	1681	9
102113	16:31	1	r.stress	11	1667	1
102113	16:31	1	r.torture	12	3854	3
102113	16:31	1	r.divorce	13	1682	1
102113	16:31	1	r.dreadful	14	4093	1
102113	16:31	1	r.muddy	15	3487	7
102113	16:31	1	r.flabby	16	2258	2
102113	16:31	1	r.thermometer	17	1813	5
102113	16:31	1	r.machine	18	1467	5
102113	16:31	1	r.sunrise	19	2373	8
102113	16:31	1	r.casino	20	1572	1
102113	16:31	1	r.wise	21	1523	9
102113	16:31	1	r.angel	22	1468	9
102113	16:31	1	r.thorn	23	4967	2
102113	16:31	1	r.obnoxious	24	1607	1
102113	16:31	1	r.subdued	25	8148	5
102113	16:31	1	r.perfection	26	2342	8
102113	16:31	1	r.volcano	27	2494	5
102113	16:31	1	r.damage	28	2008	2
102113	16:31	1	r.radio	29	1822	5
102113	16:31	1	r.sleep	30	1859	9
102113	16:31	1	r.kettle	31	1750	7
102113	16:31	1	r.thoughtful	32	1413	9
102113	16:31	1	r.detached	33	1634	5
102113	16:31	1	r.vandal	34	3095	3
102113	16:31	1	r.insult	35	2465	2
102113	16:31	1	r.diamond	36	1372	9
102113	16:31	1	r.dove	37	1123	9
102113	16:31	1	r.learn	38	1316	9
102113	16:31	1	r.truck	39	4044	5
102113	16:31	1	r.insect	40	2201	2
102113	16:31	1	r.engaged	41	2166	9
102113	16:31	1	r.listless	42	2525	5
102113	16:31	1	r.lazy	43	4630	7
102113	16:31	1	r.scandal	44	1611	1
102113	16:31	1	r.good	45	3823	7
102113	16:31	1	r.lavish	46	1766	9
102113	16:31	1	r.dazzle	47	3181	8
102113	16:31	1	r.dirty	48	4419	3
102113	16:31	1	r.glacier	49	2393	5
102113	16:31	1	r.trophy	50	1495	8
102113	16:31	1	r.crude	51	2008	1
102113	16:31	1	r.pillow	52	1566	9
102113	16:31	1	r.crushed	53	3509	5
102113	16:31	1	r.truth	54	1711	9
102113	16:31	1	r.mad	55	1471	2
102113	16:31	1	r.robber	56	1602	1
102113	16:31	1	r.saint	57	1480	9
102113	16:31	1	r.talent	58	2850	5
102113	16:31	1	r.crash	59	1406	1
102113	16:31	1	r.avenue	60	2307	8
102113	16:31	1	howtype	1	24411	6
102213	10:00	1	speed	1	8064	56
102213	10:00	1	error	2	3718	94
102213	10:00	1	whichhand	3	8824	right
102213	10:00	1	f.dweege	1	8811	4
102213	10:00	1	f.gweeth	2	2762	4
102213	10:00	1	f.kweem	3	2665	4
102213	10:00	1	f.skeeb	4	7116	4
102213	10:00	1	f.jeesh	5	7575	4
102213	10:00	1	f.dwooth	6	2759	5
102213	10:00	1	f.gwore	7	2215	2
102213	10:00	1	f.treef	8	2404	5
102213	10:00	1	f.droche	9	4338	4
102213	10:00	1	f.gwafe	10	9058	4
102213	10:00	1	f.shose	11	2672	7
102213	10:00	1	f.flooth	12	3043	5
102213	10:00	1	f.jame	13	2407	6
102213	10:00	1	f.gweege	14	3613	4
102213	10:00	1	f.tweeb	15	5106	3
102213	10:00	1	f.trofe	16	2118	5
102213	10:00	1	f.chole	17	1614	5
102213	10:00	1	f.dwave	18	1827	7
102213	10:00	1	f.krooge	19	1752	5
102213	10:00	1	f.slooge	20	1943	2
102213	10:00	1	f.throoch	21	1991	5
102213	10:00	1	f.voob	22	2309	7
102213	10:00	1	f.plooth	23	1814	5
102213	10:00	1	f.swoof	24	2035	5
102213	10:00	1	f.zoor	25	1448	6
102213	10:00	1	f.floge	26	1787	3
102213	10:00	1	f.gwoop	27	1810	5
102213	10:00	1	f.krooch	28	1646	3
102213	10:00	1	f.slame	29	5674	2
102213	10:00	1	f.twathe	30	1590	5
102213	10:00	1	f.snade	31	2548	4
102213	10:00	1	f.bloof	32	3940	2
102213	10:00	1	f.prathe	33	3517	3
102213	10:00	1	f.prache	34	6238	4
102213	10:00	1	f.yeet	35	1572	4
102213	10:00	1	f.brogue	36	2635	7
102213	10:00	1	f.tware	37	2880	5
102213	10:00	1	f.thane	38	2186	6
102213	10:00	1	f.smeel	39	2209	3
102213	10:00	1	f.thwase	40	3566	5
102213	10:00	1	f.gloge	41	3774	4
102213	10:00	1	f.vame	42	2318	7
102213	10:00	1	f.proge	43	3063	5
102213	10:00	1	f.skome	44	3010	5
102213	10:00	1	f.krooth	45	2584	6
102213	10:00	1	f.bashe	46	1670	6
102213	10:00	1	f.sheege	47	1185	5
102213	10:00	1	f.vood	48	1471	7
102213	10:00	1	f.vafe	49	1754	4
102213	10:00	1	f.dwore	50	4049	5
102213	10:00	1	f.thook	51	2686	3
102213	10:00	1	f.pobe	52	1632	7
102213	10:00	1	f.frope	53	2372	6
102213	10:00	1	f.sloor	54	1691	2
102213	10:00	1	f.groosh	55	1894	8
102213	10:00	1	f.smole	56	4183	6
102213	10:00	1	f.blashe	57	6046	6
102213	10:00	1	f.slache	58	10603	3
102213	10:00	1	f.mothe	59	6084	5
102213	10:00	1	f.zoche	60	8742	3
102213	10:00	1	r.heart	1	8026	7
102213	10:00	1	r.angel	2	2593	9
102213	10:00	1	r.dentist	3	2095	1
102213	10:00	1	r.dancer	4	1761	7
102213	10:00	1	r.triumphant	5	4327	9
102213	10:00	1	r.athletics	6	1897	8
102213	10:00	1	r.malaria	7	2482	1
102213	10:00	1	r.headache	8	1517	1
102213	10:00	1	r.education	9	2206	8
102213	10:00	1	r.vagina	10	4075	5
102213	10:00	1	r.army	11	1679	8
102213	10:00	1	r.reward	12	1425	8
102213	10:00	1	r.debt	13	1589	1
102213	10:00	1	r.clothing	14	5083	9
102213	10:00	1	r.car	15	2390	8
102213	10:00	1	r.friendly	16	1646	9
102213	10:00	1	r.dustpan	17	2305	5
102213	10:00	1	r.severe	18	2619	2
102213	10:00	1	r.cute	19	1951	8
102213	10:00	1	r.restaurant	20	3343	6
102213	10:00	1	r.irritate	21	2095	2
102213	10:00	1	r.bastard	22	2993	2
102213	10:00	1	r.tense	23	2462	2
102213	10:00	1	r.hawk	24	2386	5
102213	10:00	1	r.meek	25	1784	5
102213	10:00	1	r.disappoint	26	2182	2
102213	10:00	1	r.spirit	27	4613	8
102213	10:00	1	r.errand	28	2987	5
102213	10:00	1	r.elevator	29	5193	5
102213	10:00	1	r.rollercoaster	30	4504	8
102213	10:00	1	r.ecstasy	31	5083	1
102213	10:00	1	r.rabies	32	2662	1
102213	10:00	1	r.hatred	33	4649	1
102213	10:00	1	r.abduction	34	2118	1
102213	10:00	1	r.heaven	35	3288	9
102213	10:00	1	r.skijump	36	2946	5
102213	10:00	1	r.carefree	37	3642	9
102213	10:00	1	r.hug	38	1350	9
102213	10:00	1	r.optimism	39	1846	9
102213	10:00	1	r.moral	40	1529	9
102213	10:00	1	r.deceit	41	2833	5
102213	10:00	1	r.building	42	1590	5
102213	10:00	1	r.whistle	43	4068	5
102213	10:00	1	r.identity	44	2136	5
102213	10:00	1	r.fear	45	1336	1
102213	10:00	1	r.scorpion	46	977	1
102213	10:00	1	r.abortion	47	1279	1
102213	10:00	1	r.rotten	48	824	1
102213	10:00	1	r.glamour	49	1356	9
102213	10:00	1	r.hardship	50	1076	5
102213	10:00	1	r.moody	51	2438	1
102213	10:00	1	r.snake	52	1409	1
102213	10:00	1	r.handicap	53	936	1
102213	10:00	1	r.terrified	54	600	1
102213	10:00	1	r.unhappy	55	677	1
102213	10:00	1	r.owl	56	934	5
102213	10:00	1	r.admired	57	1207	9
102213	10:00	1	r.indifferent	58	956	5
102213	10:00	1	r.stupid	59	668	5
102213	10:00	1	r.shotgun	60	1118	1
102213	10:00	1	howtype	1	7582	5
102213	12:25	1	speed	1	2760	32
102213	12:25	1	error	2	1880	87
102213	12:25	1	whichhand	3	8434	left
102213	12:25	1	r.scorn	1	5012	1
102213	12:25	1	r.rancid	2	2898	1
102213	12:25	1	r.pleasure	3	3236	9
102213	12:25	1	r.fascinate	4	3384	5
102213	12:25	1	r.infant	5	1592	5
102213	12:25	1	r.pretty	6	2886	9
102213	12:25	1	r.sun	7	1649	9
102213	12:25	1	r.shy	8	2180	5
102213	12:25	1	r.burdened	9	2507	1
102213	12:25	1	r.criminal	10	1668	1
102213	12:25	1	r.untroubled	11	2503	5
102213	12:25	1	r.consoled	12	1345	5
102213	12:25	1	r.powerful	13	3400	9
102213	12:25	1	r.custom	14	1663	5
102213	12:25	1	r.kerosene	15	2762	5
102213	12:25	1	r.coffin	16	3353	1
102213	12:25	1	r.evil	17	1913	1
102213	12:25	1	r.bliss	18	1466	9
102213	12:25	1	r.nuisance	19	3220	1
102213	12:25	1	r.sentiment	20	1290	5
102213	12:25	1	r.riot	21	2268	5
102213	12:25	1	r.bankrupt	22	1423	1
102213	12:25	1	r.enraged	23	2052	1
102213	12:25	1	r.highway	24	1552	5
102213	12:25	1	r.blister	25	1599	1
102213	12:25	1	r.grin	26	1532	9
102213	12:25	1	r.warmth	27	1893	9
102213	12:25	1	r.revolt	28	2263	1
102213	12:25	1	r.slave	29	1858	1
102213	12:25	1	r.baby	30	3565	9
102213	12:25	1	r.tobacco	31	2381	5
102213	12:25	1	r.fish	32	1596	5
102213	12:25	1	r.intercourse	33	7153	9
102213	12:25	1	r.loneliness	34	1627	1
102213	12:25	1	r.lamb	35	2159	8
102213	12:25	1	r.alive	36	2591	7
102213	12:25	1	r.sickness	37	1357	2
102213	12:25	1	r.mail	38	2100	5
102213	12:25	1	r.bench	39	2238	5
102213	12:25	1	r.leprosy	40	1531	1
102213	12:25	1	r.perfection	41	4499	7
102213	12:25	1	r.grenade	42	2701	5
102213	12:25	1	r.activate	43	3039	7
102213	12:25	1	r.garment	44	1524	5
102213	12:25	1	r.offend	45	2093	5
102213	12:25	1	r.greet	46	2246	7
102213	12:25	1	r.muffin	47	2154	9
102213	12:25	1	r.exercise	48	4570	3
102213	12:25	1	r.bowl	49	2578	5
102213	12:25	1	r.win	50	1576	9
102213	12:25	1	r.avenue	51	2630	5
102213	12:25	1	r.skyscraper	52	1755	5
102213	12:25	1	r.reserved	53	4626	5
102213	12:25	1	r.needle	54	3367	5
102213	12:25	1	r.comfort	55	1823	9
102213	12:25	1	r.kids	56	1395	5
102213	12:25	1	r.roach	57	2377	1
102213	12:25	1	r.panic	58	2424	1
102213	12:25	1	r.dollar	59	2629	9
102213	12:25	1	r.insecure	60	2201	2
102213	12:25	1	f.shreer	1	2675	5
102213	12:25	1	f.seech	2	1677	5
102213	12:25	1	f.jeem	3	2680	5
102213	12:25	1	f.skoke	4	2394	5
102213	12:25	1	f.dwook	5	4560	5
102213	12:25	1	f.smeeze	6	1328	5
102213	12:25	1	f.klape	7	1897	5
102213	12:25	1	f.zoshe	8	858	5
102213	12:25	1	f.snoof	9	1373	5
102213	12:25	1	f.thrave	10	1428	5
102213	12:25	1	f.proche	11	2312	5
102213	12:25	1	f.shague	12	2298	5
102213	12:25	1	f.dabe	13	1476	5
102213	12:25	1	f.blague	14	1974	5
102213	12:25	1	f.shreesh	15	1517	5
102213	12:25	1	f.smaze	16	1886	5
102213	12:25	1	f.loche	17	5280	7
102213	12:25	1	f.vafe	18	2380	5
102213	12:25	1	f.skeese	19	1530	5
102213	12:25	1	f.gwose	20	850	5
102213	12:25	1	f.tweesh	21	1670	5
102213	12:25	1	f.glage	22	697	5
102213	12:25	1	f.smode	23	2401	5
102213	12:25	1	f.yage	24	1584	5
102213	12:25	1	f.gwobe	25	1878	5
102213	12:25	1	f.chode	26	1096	5
102213	12:25	1	f.yoon	27	1314	5
102213	12:25	1	f.shrale	28	1522	5
102213	12:25	1	f.krooge	29	1811	5
102213	12:25	1	f.thashe	30	1056	5
102213	12:25	1	f.kwage	31	2587	5
102213	12:25	1	f.fape	32	1506	5
102213	12:25	1	f.twothe	33	1459	5
102213	12:25	1	f.nashe	34	4806	5
102213	12:25	1	f.frage	35	1605	5
102213	12:25	1	f.droog	36	3010	5
102213	12:25	1	f.speet	37	1360	5
102213	12:25	1	f.ploshe	38	951	5
102213	12:25	1	f.smool	39	1494	5
102213	12:25	1	f.dreer	40	1151	5
102213	12:25	1	f.feech	41	1399	5
102213	12:25	1	f.klooch	42	932	5
102213	12:25	1	f.roshe	43	1764	5
102213	12:25	1	f.pleek	44	1883	5
102213	12:25	1	f.cheel	45	821	5
102213	12:25	1	f.twooch	46	2026	5
102213	12:25	1	f.skogue	47	719	5
102213	12:25	1	f.thwade	48	951	5
102213	12:25	1	f.yate	49	5398	6
102213	12:25	1	f.swoge	50	1365	5
102213	12:25	1	f.choob	51	1124	5
102213	12:25	1	f.twague	52	1701	5
102213	12:25	1	f.glothe	53	1118	5
102213	12:25	1	f.swose	54	1071	5
102213	12:25	1	f.snone	55	594	5
102213	12:25	1	f.sheeb	56	2591	5
102213	12:25	1	f.floof	57	1182	5
102213	12:25	1	f.weeg	58	1204	5
102213	12:25	1	f.shreeg	59	3681	5
102213	12:25	1	f.thoshe	60	2876	5
102213	12:25	1	howtype	1	10628	4
102213	14:28	1	speed	1	3034	75
102213	14:28	1	error	2	2087	98
102213	14:28	1	whichhand	3	8954	right
102213	14:28	1	r.horse	1	10063	7
102213	14:28	1	r.coarse	2	6437	3
102213	14:28	1	r.hamburger	3	4059	7
102213	14:28	1	r.elated	4	6030	5
102213	14:28	1	r.food	5	7388	7
102213	14:28	1	r.seasick	6	4100	2
102213	14:28	1	r.lion	7	6126	6
102213	14:28	1	r.cash	8	7840	7
102213	14:28	1	r.war	9	7038	3
102213	14:28	1	r.scorching	10	6196	2
102213	14:28	1	r.gossip	11	3387	6
102213	14:28	1	r.disgusted	12	5490	3
102213	14:28	1	r.vanity	13	7037	5
102213	14:28	1	r.pancakes	14	3708	7
102213	14:28	1	r.dreary	15	3998	3
102213	14:28	1	r.perfume	16	3484	9
102213	14:28	1	r.milk	17	2391	8
102213	14:28	1	r.outdoors	18	2534	8
102213	14:28	1	r.greed	19	6230	3
102213	14:28	1	r.truth	20	2756	8
102213	14:28	1	r.scissors	21	7396	5
102213	14:28	1	r.hard	22	4979	2
102213	14:28	1	r.nude	23	3242	5
102213	14:28	1	r.car	24	4214	7
102213	14:28	1	r.swift	25	3964	6
102213	14:28	1	r.angry	26	4004	2
102213	14:28	1	r.hope	27	2314	8
102213	14:28	1	r.burial	28	4835	2
102213	14:28	1	r.kettle	29	3177	6
102213	14:28	1	r.magical	30	2671	8
102213	14:28	1	r.rape	31	3162	1
102213	14:28	1	r.virgin	32	4810	5
102213	14:28	1	r.hat	33	5943	6
102213	14:28	1	r.flabby	34	3161	3
102213	14:28	1	r.fabric	35	2864	7
102213	14:28	1	r.decompose	36	2804	3
102213	14:28	1	r.mosquito	37	3169	2
102213	14:28	1	r.fungus	38	3185	2
102213	14:28	1	r.elegant	39	3736	8
102213	14:28	1	r.gripe	40	2521	2
102213	14:28	1	r.outrage	41	3722	3
102213	14:28	1	r.zest	42	4859	6
102213	14:28	1	r.tragedy	43	2255	1
102213	14:28	1	r.leisurely	44	2891	5
102213	14:28	1	r.wedding	45	1942	9
102213	14:28	1	r.sailboat	46	3158	9
102213	14:28	1	r.beauty	47	2990	8
102213	14:28	1	r.talent	48	2029	7
102213	14:28	1	r.thermometer	49	3601	5
102213	14:28	1	r.lust	50	8047	4
102213	14:28	1	r.dignified	51	3357	7
102213	14:28	1	r.bowl	52	7005	6
102213	14:28	1	r.doll	53	1892	5
102213	14:28	1	r.headache	54	1958	2
102213	14:28	1	r.lesbian	55	5254	4
102213	14:28	1	r.bride	56	2490	7
102213	14:28	1	r.key	57	2805	7
102213	14:28	1	r.mountain	58	4675	6
102213	14:28	1	r.name	59	3782	5
102213	14:28	1	r.friendly	60	1525	8
102213	14:28	1	f.woche	1	8960	4
102213	14:28	1	f.dwool	2	9178	4
102213	14:28	1	f.stathe	3	5283	3
102213	14:28	1	f.dweek	4	2294	3
102213	14:28	1	f.voof	5	4144	6
102213	14:28	1	f.groge	6	4585	3
102213	14:28	1	f.bave	7	5960	6
102213	14:28	1	f.gwose	8	1976	3
102213	14:28	1	f.jeesh	9	5758	5
102213	14:28	1	f.slobe	10	2079	4
102213	14:28	1	f.sobe	11	4801	6
102213	14:28	1	f.gween	12	3024	7
102213	14:28	1	f.spate	13	2157	3
102213	14:28	1	f.skoosh	14	2853	7
102213	14:28	1	f.snade	15	7089	4
102213	14:28	1	f.thweer	16	3565	3
102213	14:28	1	f.gwove	17	4028	6
102213	14:28	1	f.floog	18	2409	3
102213	14:28	1	f.threeg	19	3518	6
102213	14:28	1	f.shrare	20	1816	7
102213	14:28	1	f.thooth	21	5445	5
102213	14:28	1	f.thoche	22	3234	4
102213	14:28	1	f.trofe	23	1878	7
102213	14:28	1	f.thwooge	24	3593	6
102213	14:28	1	f.thrape	25	4918	2
102213	14:28	1	f.snooch	26	6649	4
102213	14:28	1	f.grache	27	3558	5
102213	14:28	1	f.plache	28	3102	5
102213	14:28	1	f.ploche	29	2624	6
102213	14:28	1	f.yeech	30	2710	4
102213	14:28	1	f.brope	31	4583	6
102213	14:28	1	f.lache	32	3318	6
102213	14:28	1	f.jeech	33	2047	5
102213	14:28	1	f.shroon	34	4171	4
102213	14:28	1	f.chathe	35	3746	4
102213	14:28	1	f.pabe	36	2595	7
102213	14:28	1	f.klape	37	2409	6
102213	14:28	1	f.thoge	38	2726	4
102213	14:28	1	f.blobe	39	2407	3
102213	14:28	1	f.beeg	40	3116	7
102213	14:28	1	f.dwone	41	7438	3
102213	14:28	1	f.kreech	42	2244	4
102213	14:28	1	f.thathe	43	2216	4
102213	14:28	1	f.smape	44	3980	3
102213	14:28	1	f.thoon	45	2324	3
102213	14:28	1	f.tware	46	2213	5
102213	14:28	1	f.nage	47	2402	4
102213	14:28	1	f.kroge	48	2336	5
102213	14:28	1	f.swooch	49	4040	3
102213	14:28	1	f.stoof	50	2805	6
102213	14:28	1	f.dofe	51	1435	4
102213	14:28	1	f.twose	52	2607	7
102213	14:28	1	f.tooge	53	1917	5
102213	14:28	1	f.kweesh	54	4486	4
102213	14:28	1	f.fofe	55	3473	6
102213	14:28	1	f.twoom	56	2701	8
102213	14:28	1	f.frage	57	3302	3
102213	14:28	1	f.vape	58	2593	2
102213	14:28	1	f.speet	59	4311	4
102213	14:28	1	f.shrooch	60	3384	5
102213	14:28	1	howtype	1	18782	7
102213	15:30	1	speed	1	2989	39
102213	15:30	1	error	2	1851	100
102213	15:30	1	whichhand	3	9583	right
102213	15:30	1	r.inspired	1	12649	7
102213	15:30	1	r.pet	2	3641	5
102213	15:30	1	r.woman	3	3582	5
102213	15:30	1	r.anguished	4	4660	3
102213	15:30	1	r.pamphlet	5	2577	5
102213	15:30	1	r.embattled	6	2783	5
102213	15:30	1	r.humor	7	2590	6
102213	15:30	1	r.waterfall	8	2004	5
102213	15:30	1	r.bottle	9	1466	5
102213	15:30	1	r.alive	10	2788	7
102213	15:30	1	r.safe	11	2851	8
102213	15:30	1	r.bankrupt	12	2375	2
102213	15:30	1	r.hug	13	2390	6
102213	15:30	1	r.seasick	14	2917	3
102213	15:30	1	r.couple	15	1886	5
102213	15:30	1	r.bold	16	2080	7
102213	15:30	1	r.overcast	17	3091	4
102213	15:30	1	r.dead	18	2661	2
102213	15:30	1	r.helpless	19	1761	1
102213	15:30	1	r.identity	20	3968	5
102213	15:30	1	r.scholar	21	2183	7
102213	15:30	1	r.man	22	1742	5
102213	15:30	1	r.consoled	23	1518	5
102213	15:30	1	r.chocolate	24	1319	5
102213	15:30	1	r.jolly	25	1719	6
102213	15:30	1	r.ocean	26	1328	5
102213	15:30	1	r.intercourse	27	1944	5
102213	15:30	1	r.stiff	28	2776	5
102213	15:30	1	r.listless	29	4311	5
102213	15:30	1	r.gripe	30	1481	5
102213	15:30	1	r.cuddle	31	3603	6
102213	15:30	1	r.obsession	32	2056	4
102213	15:30	1	r.cottage	33	1933	5
102213	15:30	1	r.crucify	34	1869	5
102213	15:30	1	r.ink	35	1608	5
102213	15:30	1	r.door	36	1782	5
102213	15:30	1	r.repentant	37	2476	5
102213	15:30	1	r.honey	38	2574	6
102213	15:30	1	r.black	39	1821	5
102213	15:30	1	r.puppy	40	1675	5
102213	15:30	1	r.shark	41	1973	4
102213	15:30	1	r.teacher	42	1884	6
102213	15:30	1	r.hard	43	2247	4
102213	15:30	1	r.fall	44	1650	4
102213	15:30	1	r.god	45	1990	5
102213	15:30	1	r.haphazard	46	2036	4
102213	15:30	1	r.party	47	2097	5
102213	15:30	1	r.quality	48	3082	6
102213	15:30	1	r.red	49	1133	5
102213	15:30	1	r.hay	50	949	5
102213	15:30	1	r.thrill	51	1324	6
102213	15:30	1	r.breast	52	1333	5
102213	15:30	1	r.savior	53	885	5
102213	15:30	1	r.iron	54	1351	5
102213	15:30	1	r.detail	55	1879	5
102213	15:30	1	r.rifle	56	1185	5
102213	15:30	1	r.distressed	57	1591	3
102213	15:30	1	r.youth	58	1662	6
102213	15:30	1	r.sunlight	59	928	6
102213	15:30	1	r.anxious	60	1488	4
102213	15:30	1	f.glague	1	3449	4
102213	15:30	1	f.gwoof	2	1621	4
102213	15:30	1	f.pleep	3	2426	5
102213	15:30	1	f.shreeze	4	1231	4
102213	15:30	1	f.sweeth	5	2691	5
102213	15:30	1	f.brooth	6	1517	5
102213	15:30	1	f.twoosh	7	1126	5
102213	15:30	1	f.theege	8	990	5
102213	15:30	1	f.frove	9	1436	5
102213	15:30	1	f.throom	10	857	5
102213	15:30	1	f.shose	11	1844	5
102213	15:30	1	f.noge	12	2287	5
102213	15:30	1	f.snooth	13	1490	4
102213	15:30	1	f.drogue	14	2292	4
102213	15:30	1	f.kague	15	1311	4
102213	15:30	1	f.gwade	16	647	5
102213	15:30	1	f.jate	17	1570	4
102213	15:30	1	f.thwathe	18	2641	5
102213	15:30	1	f.sloshe	19	1110	5
102213	15:30	1	f.shreech	20	2007	4
102213	15:30	1	f.brape	21	1028	5
102213	15:30	1	f.twoof	22	2264	5
102213	15:30	1	f.toshe	23	1115	5
102213	15:30	1	f.drose	24	652	5
102213	15:30	1	f.shage	25	1192	5
102213	15:30	1	f.frape	26	893	5
102213	15:30	1	f.zeeg	27	1055	5
102213	15:30	1	f.fooch	28	1482	4
102213	15:30	1	f.kwabe	29	1324	4
102213	15:30	1	f.dreef	30	1005	5
102213	15:30	1	f.trabe	31	1298	4
102213	15:30	1	f.dreer	32	1100	5
102213	15:30	1	f.drase	33	1157	5
102213	15:30	1	f.gwooge	34	1117	5
102213	15:30	1	f.shroze	35	1038	4
102213	15:30	1	f.thwame	36	817	5
102213	15:30	1	f.thoot	37	1278	4
102213	15:30	1	f.yase	38	1216	4
102213	15:30	1	f.spogue	39	1277	5
102213	15:30	1	f.skeege	40	2759	3
102213	15:30	1	f.threep	41	2214	5
102213	15:30	1	f.sneeth	42	771	5
102213	15:30	1	f.blole	43	874	5
102213	15:30	1	f.sloor	44	788	5
102213	15:30	1	f.preep	45	987	5
102213	15:30	1	f.blogue	46	1065	5
102213	15:30	1	f.nague	47	635	5
102213	15:30	1	f.yote	48	712	5
102213	15:30	1	f.kreeth	49	1224	5
102213	15:30	1	f.kwobe	50	1221	5
102213	15:30	1	f.slame	51	1489	4
102213	15:30	1	f.thwove	52	1019	5
102213	15:30	1	f.chade	53	752	5
102213	15:30	1	f.lole	54	903	5
102213	15:30	1	f.slore	55	929	4
102213	15:30	1	f.loshe	56	1537	5
102213	15:30	1	f.soob	57	1337	3
102213	15:30	1	f.bloge	58	1513	5
102213	15:30	1	f.gwake	59	1042	5
102213	15:30	1	f.dwoom	60	1398	3
102213	15:30	1	howtype	1	11986	3
102313	12:00	1	speed	1	4713	42
102313	12:00	1	error	2	2421	100
102313	12:00	1	whichhand	3	7722	right
102313	12:00	1	r.alive	1	10211	7
102313	12:00	1	r.lightbulb	2	8266	5
102313	12:00	1	r.book	3	3039	7
102313	12:00	1	r.seasick	4	5908	3
102313	12:00	1	r.skijump	5	3775	5
102313	12:00	1	r.muscular	6	11462	5
102313	12:00	1	r.carefree	7	4788	9
102313	12:00	1	r.fatigued	8	3236	4
102313	12:00	1	r.pleasure	9	2480	9
102313	12:00	1	r.champion	10	1707	8
102313	12:00	1	r.alley	11	4604	4
102313	12:00	1	r.satisfied	12	2803	7
102313	12:00	1	r.traitor	13	2433	1
102313	12:00	1	r.nuisance	14	2446	4
102313	12:00	1	r.mountain	15	2649	5
102313	12:00	1	r.ink	16	1749	5
102313	12:00	1	r.glass	17	2917	4
102313	12:00	1	r.trunk	18	6366	4
102313	12:00	1	r.part	19	1998	5
102313	12:00	1	r.rollercoaster	20	3204	3
102313	12:00	1	r.hurricane	21	2178	1
102313	12:00	1	r.home	22	2033	9
102313	12:00	1	r.corner	23	1429	5
102313	12:00	1	r.offend	24	2713	2
102313	12:00	1	r.restaurant	25	1682	7
102313	12:00	1	r.mushroom	26	2485	5
102313	12:00	1	r.ennui	27	2631	5
102313	12:00	1	r.treasure	28	2524	9
102313	12:00	1	r.black	29	3525	5
102313	12:00	1	r.bathroom	30	4038	3
102313	12:00	1	r.truck	31	1859	5
102313	12:00	1	r.inspired	32	1983	8
102313	12:00	1	r.wine	33	2149	9
102313	12:00	1	r.poison	34	1981	1
102313	12:00	1	r.depression	35	1547	1
102313	12:00	1	r.destroy	36	835	1
102313	12:00	1	r.displeased	37	4367	2
102313	12:00	1	r.honey	38	2334	7
102313	12:00	1	r.blue	39	3559	4
102313	12:00	1	r.repentant	40	7262	5
102313	12:00	1	r.violent	41	3323	1
102313	12:00	1	r.owl	42	3196	5
102313	12:00	1	r.swimmer	43	2058	5
102313	12:00	1	r.cook	44	3406	7
102313	12:00	1	r.brutal	45	2292	1
102313	12:00	1	r.burn	46	1446	1
102313	12:00	1	r.friend	47	1634	9
102313	12:00	1	r.breeze	48	1741	9
102313	12:00	1	r.girl	49	3158	5
102313	12:00	1	r.radiant	50	1654	9
102313	12:00	1	r.sheltered	51	4913	6
102313	12:00	1	r.alert	52	2179	5
102313	12:00	1	r.scared	53	1698	1
102313	12:00	1	r.swift	54	3019	5
102313	12:00	1	r.eat	55	4473	7
102313	12:00	1	r.outdoors	56	2156	8
102313	12:00	1	r.fat	57	3004	3
102313	12:00	1	r.sissy	58	4066	5
102313	12:00	1	r.embattled	59	2622	5
102313	12:00	1	r.stove	60	1635	5
102313	12:00	1	f.froof	1	2160	5
102313	12:00	1	f.pame	2	2783	5
102313	12:00	1	f.lache	3	8414	3
102313	12:00	1	f.snache	4	2581	3
102313	12:00	1	f.throme	5	6331	5
102313	12:00	1	f.kweed	6	3061	7
102313	12:00	1	f.thathe	7	2409	3
102313	12:00	1	f.bloof	8	7142	6
102313	12:00	1	f.flage	9	2200	3
102313	12:00	1	f.spoge	10	2006	3
102313	12:00	1	f.pooth	11	1859	3
102313	12:00	1	f.kreeth	12	2831	2
102313	12:00	1	f.twore	13	3187	3
102313	12:00	1	f.dwave	14	3146	7
102313	12:00	1	f.spate	15	2386	3
102313	12:00	1	f.twooth	16	4271	2
102313	12:00	1	f.seeg	17	3908	4
102313	12:00	1	f.sague	18	2679	3
102313	12:00	1	f.greer	19	3257	3
102313	12:00	1	f.shroche	20	2941	5
102313	12:00	1	f.dweeg	21	3998	3
102313	12:00	1	f.threeth	22	3396	4
102313	12:00	1	f.kwoom	23	4842	6
102313	12:00	1	f.flache	24	3263	3
102313	12:00	1	f.lole	25	3483	7
102313	12:00	1	f.thague	26	1949	3
102313	12:00	1	f.gwothe	27	3173	3
102313	12:00	1	f.dwoose	28	4876	4
102313	12:00	1	f.thwode	29	2792	5
102313	12:00	1	f.dwoon	30	2798	5
102313	12:00	1	f.wache	31	4620	3
102313	12:00	1	f.twoche	32	3553	3
102313	12:00	1	f.seech	33	2850	2
102313	12:00	1	f.swove	34	1742	3
102313	12:00	1	f.throom	35	2998	5
102313	12:00	1	f.smave	36	3108	3
102313	12:00	1	f.skoog	37	3390	4
102313	12:00	1	f.drose	38	2493	5
102313	12:00	1	f.breege	39	4663	5
102313	12:00	1	f.tofe	40	2979	6
102313	12:00	1	f.tweeb	41	1858	3
102313	12:00	1	f.thwoose	42	2325	3
102313	12:00	1	f.dweech	43	3742	2
102313	12:00	1	f.steeg	44	2175	3
102313	12:00	1	f.seesh	45	3998	6
102313	12:00	1	f.zogue	46	2812	5
102313	12:00	1	f.smothe	47	1601	6
102313	12:00	1	f.kweeve	48	1527	3
102313	12:00	1	f.bove	49	2015	5
102313	12:00	1	f.chole	50	2603	5
102313	12:00	1	f.pome	51	4953	5
102313	12:00	1	f.kweege	52	1746	3
102313	12:00	1	f.thweef	53	1714	3
102313	12:00	1	f.dwole	54	2234	5
102313	12:00	1	f.dreech	55	2159	2
102313	12:00	1	f.sobe	56	2055	5
102313	12:00	1	f.swose	57	1370	3
102313	12:00	1	f.zate	58	1905	5
102313	12:00	1	f.zeek	59	2491	4
102313	12:00	1	f.sweech	60	1957	3
102313	12:00	1	howtype	1	16892	6
102313	13:30	1	speed	1	2969	32
102313	13:30	1	error	2	3062	90
102313	13:30	1	whichhand	3	10129	left
102313	13:30	1	r.alimony	1	5708	5
102313	13:30	1	r.mountain	2	7158	5
102313	13:30	1	r.burdened	3	6165	2
102313	13:30	1	r.disgusted	4	3519	1
102313	13:30	1	r.talent	5	2320	9
102313	13:30	1	r.lawsuit	6	2234	5
102313	13:30	1	r.enjoyment	7	2478	9
102313	13:30	1	r.nourish	8	1201	9
102313	13:30	1	r.imagine	9	934	9
102313	13:30	1	r.humiliate	10	2294	1
102313	13:30	1	r.bastard	11	1400	1
102313	13:30	1	r.memories	12	2725	5
102313	13:30	1	r.fascinate	13	3303	7
102313	13:30	1	r.disaster	14	3428	1
102313	13:30	1	r.stove	15	2877	5
102313	13:30	1	r.nonchalant	16	3024	2
102313	13:30	1	r.scum	17	1949	1
102313	13:30	1	r.fame	18	1636	9
102313	13:30	1	r.madman	19	3121	5
102313	13:30	1	r.cord	20	1939	5
102313	13:30	1	r.gripe	21	2547	3
102313	13:30	1	r.drown	22	1107	3
102313	13:30	1	r.cat	23	1764	5
102313	13:30	1	r.leprosy	24	3115	2
102313	13:30	1	r.industry	25	1420	5
102313	13:30	1	r.thermometer	26	1417	5
102313	13:30	1	r.sad	27	2366	1
102313	13:30	1	r.corner	28	1365	5
102313	13:30	1	r.rotten	29	1331	1
102313	13:30	1	r.termite	30	2012	5
102313	13:30	1	r.social	31	1352	5
102313	13:30	1	r.fraud	32	2536	3
102313	13:30	1	r.ridicule	33	2610	4
102313	13:30	1	r.surprised	34	1789	8
102313	13:30	1	r.barrel	35	1339	5
102313	13:30	1	r.cane	36	1010	5
102313	13:30	1	r.hooker	37	2583	2
102313	13:30	1	r.blasphemy	38	2535	3
102313	13:30	1	r.clumsy	39	2287	4
102313	13:30	1	r.sunset	40	2001	8
102313	13:30	1	r.museum	41	3382	5
102313	13:30	1	r.zest	42	4062	5
102313	13:30	1	r.snow	43	3178	1
102313	13:30	1	r.swamp	44	1017	1
102313	13:30	1	r.answer	45	1829	5
102313	13:30	1	r.allergy	46	1817	2
102313	13:30	1	r.capable	47	2406	6
102313	13:30	1	r.mantel	48	1164	5
102313	13:30	1	r.yacht	49	1907	9
102313	13:30	1	r.tennis	50	1309	5
102313	13:30	1	r.banner	51	1134	5
102313	13:30	1	r.icebox	52	2630	1
102313	13:30	1	r.tomb	53	1363	5
102313	13:30	1	r.curtains	54	1602	5
102313	13:30	1	r.wink	55	2006	7
102313	13:30	1	r.fantasy	56	1596	7
102313	13:30	1	r.friendly	57	905	7
102313	13:30	1	r.decompose	58	1907	2
102313	13:30	1	r.bereavement	59	1661	5
102313	13:30	1	r.taxi	60	1816	5
102313	13:30	1	f.shreep	1	4831	5
102313	13:30	1	f.thwode	2	996	5
102313	13:30	1	f.skoose	3	1513	5
102313	13:30	1	f.dwane	4	786	5
102313	13:30	1	f.thwoot	5	736	5
102313	13:30	1	f.spope	6	1024	5
102313	13:30	1	f.plape	7	1237	5
102313	13:30	1	f.spoosh	8	1961	5
102313	13:30	1	f.kleesh	9	1264	5
102313	13:30	1	f.bloge	10	1187	5
102313	13:30	1	f.throfe	11	665	5
102313	13:30	1	f.swothe	12	699	5
102313	13:30	1	f.prale	13	1316	5
102313	13:30	1	f.swoge	14	669	5
102313	13:30	1	f.groor	15	1048	5
102313	13:30	1	f.smase	16	1843	5
102313	13:30	1	f.steesh	17	911	5
102313	13:30	1	f.treef	18	1208	5
102313	13:30	1	f.flague	19	1197	5
102313	13:30	1	f.threege	20	578	5
102313	13:30	1	f.jathe	21	624	5
102313	13:30	1	f.vake	22	653	5
102313	13:30	1	f.neeb	23	696	5
102313	13:30	1	f.toof	24	633	5
102313	13:30	1	f.flogue	25	2949	4
102313	13:30	1	f.spage	26	1373	4
102313	13:30	1	f.skeeg	27	964	4
102313	13:30	1	f.shroot	28	1491	4
102313	13:30	1	f.sneesh	29	981	4
102313	13:30	1	f.spashe	30	691	4
102313	13:30	1	f.frogue	31	1429	4
102313	13:30	1	f.foop	32	3409	5
102313	13:30	1	f.thwogue	33	1422	5
102313	13:30	1	f.bove	34	1259	5
102313	13:30	1	f.frope	35	1110	5
102313	13:30	1	f.dwape	36	1213	5
102313	13:30	1	f.pooth	37	714	5
102313	13:30	1	f.groosh	38	754	5
102313	13:30	1	f.plore	39	786	5
102313	13:30	1	f.floshe	40	856	5
102313	13:30	1	f.thrage	41	835	5
102313	13:30	1	f.jabe	42	1927	5
102313	13:30	1	f.thwafe	43	976	5
102313	13:30	1	f.prate	44	686	5
102313	13:30	1	f.leesh	45	743	5
102313	13:30	1	f.jothe	46	687	5
102313	13:30	1	f.freeve	47	1089	5
102313	13:30	1	f.sneem	48	3147	3
102313	13:30	1	f.swome	49	1483	3
102313	13:30	1	f.twoge	50	756	3
102313	13:30	1	f.dwade	51	964	3
102313	13:30	1	f.yoom	52	2059	3
102313	13:30	1	f.nothe	53	870	3
102313	13:30	1	f.plooth	54	1281	3
102313	13:30	1	f.sposhe	55	1075	3
102313	13:30	1	f.skooge	56	893	3
102313	13:30	1	f.spoot	57	2367	4
102313	13:30	1	f.frooth	58	1214	4
102313	13:30	1	f.sneed	59	906	4
102313	13:30	1	f.kwoove	60	932	4
102313	13:30	1	howtype	1	10986	4
102313	15:28	1	speed	1	2787	33
102313	15:28	1	error	2	1838	96
102313	15:28	1	whichhand	3	7299	right
102313	15:28	1	f.gwose	1	13621	1
102313	15:28	1	f.pague	2	3158	3
102313	15:28	1	f.smathe	3	3134	3
102313	15:28	1	f.mobe	4	1959	5
102313	15:28	1	f.throof	5	3702	5
102313	15:28	1	f.sname	6	3440	5
102313	15:28	1	f.spague	7	2581	7
102313	15:28	1	f.flope	8	2563	5
102313	15:28	1	f.flove	9	3891	8
102313	15:28	1	f.kroor	10	3462	7
102313	15:28	1	f.yope	11	3609	4
102313	15:28	1	f.swoze	12	2206	5
102313	15:28	1	f.greege	13	5396	4
102313	15:28	1	f.kwoche	14	3955	3
102313	15:28	1	f.prooth	15	3955	5
102313	15:28	1	f.dweem	16	2963	6
102313	15:28	1	f.throle	17	3011	6
102313	15:28	1	f.prake	18	3712	5
102313	15:28	1	f.shreer	19	3778	6
102313	15:28	1	f.swache	20	2353	4
102313	15:28	1	f.swabe	21	2089	1
102313	15:28	1	f.gwabe	22	2411	1
102313	15:28	1	f.soob	23	1880	1
102313	15:28	1	f.zoosh	24	2810	3
102313	15:28	1	f.boove	25	1919	1
102313	15:28	1	f.sneeb	26	1720	2
102313	15:28	1	f.preesh	27	1865	3
102313	15:28	1	f.dweeth	28	2132	2
102313	15:28	1	f.lole	29	1901	3
102313	15:28	1	f.slache	30	3285	4
102313	15:28	1	f.thwale	31	2280	5
102313	15:28	1	f.thweed	32	2019	3
102313	15:28	1	f.smoove	33	1779	2
102313	15:28	1	f.feech	34	3180	6
102313	15:28	1	f.veek	35	1867	4
102313	15:28	1	f.gwame	36	4854	5
102313	15:28	1	f.zoof	37	2530	5
102313	15:28	1	f.spove	38	2691	4
102313	15:28	1	f.stoob	39	2053	3
102313	15:28	1	f.stague	40	3961	6
102313	15:28	1	f.thole	41	2449	2
102313	15:28	1	f.kreech	42	2229	5
102313	15:28	1	f.smoose	43	1529	1
102313	15:28	1	f.thwoog	44	2857	4
102313	15:28	1	f.glafe	45	3885	5
102313	15:28	1	f.slore	46	1736	1
102313	15:28	1	f.dweel	47	1664	2
102313	15:28	1	f.snathe	48	2275	2
102313	15:28	1	f.gache	49	1591	1
102313	15:28	1	f.zave	50	2317	5
102313	15:28	1	f.glogue	51	5006	5
102313	15:28	1	f.cheeth	52	2020	2
102313	15:28	1	f.kague	53	1585	3
102313	15:28	1	f.snase	54	1720	2
102313	15:28	1	f.geeth	55	3177	4
102313	15:28	1	f.meef	56	1855	2
102313	15:28	1	f.rashe	57	3787	4
102313	15:28	1	f.sneef	58	1762	5
102313	15:28	1	f.threege	59	1441	3
102313	15:28	1	f.gooth	60	1853	1
102313	15:28	1	r.trouble	1	3852	2
102313	15:28	1	r.cork	2	4065	5
102313	15:28	1	r.swift	3	2348	6
102313	15:28	1	r.bed	4	2692	7
102313	15:28	1	r.scorpion	5	2278	1
102313	15:28	1	r.prestige	6	4224	8
102313	15:28	1	r.gender	7	2582	5
102313	15:28	1	r.bright	8	2653	9
102313	15:28	1	r.rude	9	2017	1
102313	15:28	1	r.snob	10	3206	1
102313	15:28	1	r.pet	11	6572	6
102313	15:28	1	r.happy	12	3604	7
102313	15:28	1	r.friendly	13	1418	8
102313	15:28	1	r.vacation	14	2007	9
102313	15:28	1	r.dreadful	15	2276	2
102313	15:28	1	r.noisy	16	2527	2
102313	15:28	1	r.toxic	17	1704	1
102313	15:28	1	r.indifferent	18	2690	2
102313	15:28	1	r.mighty	19	3956	5
102313	15:28	1	r.kitten	20	2989	9
102313	15:28	1	r.liberty	21	2411	9
102313	15:28	1	r.blind	22	2024	1
102313	15:28	1	r.garbage	23	1261	1
102313	15:28	1	r.hug	24	2744	6
102313	15:28	1	r.detached	25	2511	1
102313	15:28	1	r.louse	26	1729	1
102313	15:28	1	r.slap	27	2489	2
102313	15:28	1	r.outstanding	28	1908	8
102313	15:28	1	r.scared	29	1222	1
102313	15:28	1	r.sick	30	1682	1
102313	15:28	1	r.dinner	31	2253	9
102313	15:28	1	r.python	32	1376	1
102313	15:28	1	r.idol	33	1910	5
102313	15:28	1	r.easygoing	34	4831	8
102313	15:28	1	r.chance	35	1941	8
102313	15:28	1	r.ink	36	2861	5
102313	15:28	1	r.air	37	2656	8
102313	15:28	1	r.troubled	38	1868	1
102313	15:28	1	r.ambition	39	3087	8
102313	15:28	1	r.wine	40	2994	5
102313	15:28	1	r.diploma	41	1896	9
102313	15:28	1	r.cheer	42	1649	9
102313	15:28	1	r.derelict	43	2309	5
102313	15:28	1	r.windmill	44	3078	5
102313	15:28	1	r.famous	45	2521	6
102313	15:28	1	r.lost	46	1880	1
102313	15:28	1	r.trumpet	47	2044	5
102313	15:28	1	r.fraud	48	1656	1
102313	15:28	1	r.farm	49	2596	3
102313	15:28	1	r.hopeful	50	2122	8
102313	15:28	1	r.handsome	51	1978	8
102313	15:28	1	r.beauty	52	1433	8
102313	15:28	1	r.bandage	53	2229	5
102313	15:28	1	r.astronaut	54	2362	7
102313	15:28	1	r.melody	55	2017	8
102313	15:28	1	r.spring	56	2110	9
102313	15:28	1	r.detest	57	2871	3
102313	15:28	1	r.reward	58	2346	7
102313	15:28	1	r.radiant	59	1794	8
102313	15:28	1	r.tobacco	60	2159	1
102313	15:28	1	howtype	1	13860	4
102413	11:00	1	speed	1	2848	70
102413	11:00	1	error	2	2069	97
102413	11:00	1	whichhand	3	4632	left
102413	11:00	1	f.floog	1	6050	3
102413	11:00	1	f.snoom	2	6159	2
102413	11:00	1	f.smooge	3	5871	4
102413	11:00	1	f.dwoove	4	2164	3
102413	11:00	1	f.throop	5	2235	1
102413	11:00	1	f.proop	6	2319	1
102413	11:00	1	f.drode	7	2560	2
102413	11:00	1	f.gwool	8	2143	3
102413	11:00	1	f.smane	9	1831	2
102413	11:00	1	f.threed	10	3619	5
102413	11:00	1	f.vape	11	2000	4
102413	11:00	1	f.thague	12	2742	5
102413	11:00	1	f.swame	13	1288	5
102413	11:00	1	f.bague	14	1361	5
102413	11:00	1	f.smase	15	1881	4
102413	11:00	1	f.flashe	16	3049	3
102413	11:00	1	f.zathe	17	2909	4
102413	11:00	1	f.sneech	18	2470	2
102413	11:00	1	f.sloosh	19	1306	2
102413	11:00	1	f.frofe	20	4466	5
102413	11:00	1	f.plave	21	1902	3
102413	11:00	1	f.mabe	22	3759	5
102413	11:00	1	f.snose	23	4207	5
102413	11:00	1	f.twashe	24	2205	5
102413	11:00	1	f.thrale	25	1499	5
102413	11:00	1	f.looch	26	1652	2
102413	11:00	1	f.snone	27	2592	3
102413	11:00	1	f.vade	28	2902	4
102413	11:00	1	f.shrape	29	3552	6
102413	11:00	1	f.blashe	30	3344	6
102413	11:00	1	f.mooth	31	2263	5
102413	11:00	1	f.gwobe	32	2947	4
102413	11:00	1	f.dwape	33	3610	5
102413	11:00	1	f.spove	34	1600	4
102413	11:00	1	f.kwashe	35	3534	5
102413	11:00	1	f.snoche	36	2510	4
102413	11:00	1	f.bave	37	2015	3
102413	11:00	1	f.gwofe	38	4213	5
102413	11:00	1	f.meeb	39	2202	4
102413	11:00	1	f.plache	40	1944	6
102413	11:00	1	f.trooge	41	1968	5
102413	11:00	1	f.bleege	42	2694	5
102413	11:00	1	f.brothe	43	1824	4
102413	11:00	1	f.krage	44	2548	5
102413	11:00	1	f.spobe	45	2772	2
102413	11:00	1	f.zove	46	2425	4
102413	11:00	1	f.gleese	47	1686	5
102413	11:00	1	f.skoove	48	3848	2
102413	11:00	1	f.prathe	49	3237	3
102413	11:00	1	f.ploop	50	1633	1
102413	11:00	1	f.smeeth	51	4477	4
102413	11:00	1	f.smape	52	4529	2
102413	11:00	1	f.gwoot	53	1898	1
102413	11:00	1	f.yate	54	4651	4
102413	11:00	1	f.chothe	55	4128	5
102413	11:00	1	f.deeg	56	3729	5
102413	11:00	1	f.glofe	57	1146	4
102413	11:00	1	f.soshe	58	5801	3
102413	11:00	1	f.slache	59	2968	4
102413	11:00	1	f.gwore	60	8824	3
102413	11:00	1	r.health	1	5232	7
102413	11:00	1	r.derelict	2	2437	4
102413	11:00	1	r.gender	3	1882	5
102413	11:00	1	r.carefree	4	1860	8
102413	11:00	1	r.brother	5	1751	8
102413	11:00	1	r.pervert	6	2926	2
102413	11:00	1	r.desire	7	1823	5
102413	11:00	1	r.advantage	8	2996	6
102413	11:00	1	r.agreement	9	1458	6
102413	11:00	1	r.sour	10	3486	4
102413	11:00	1	r.honey	11	2176	8
102413	11:00	1	r.corrupt	12	2359	4
102413	11:00	1	r.fabric	13	1839	5
102413	11:00	1	r.pride	14	1731	6
102413	11:00	1	r.useless	15	2155	2
102413	11:00	1	r.pig	16	3107	5
102413	11:00	1	r.rescue	17	1757	7
102413	11:00	1	r.rabies	18	2084	1
102413	11:00	1	r.addicted	19	2583	1
102413	11:00	1	r.cork	20	1909	3
102413	11:00	1	r.rock	21	2446	5
102413	11:00	1	r.tree	22	1018	5
102413	11:00	1	r.syphilis	23	1911	1
102413	11:00	1	r.thorn	24	1592	2
102413	11:00	1	r.rancid	25	2646	3
102413	11:00	1	r.bland	26	3330	5
102413	11:00	1	r.utensil	27	3371	5
102413	11:00	1	r.green	28	2498	6
102413	11:00	1	r.paralysis	29	2476	1
102413	11:00	1	r.morbid	30	1974	1
102413	11:00	1	r.glory	31	1006	1
102413	11:00	1	r.grime	32	1075	1
102413	11:00	1	r.violin	33	1982	5
102413	11:00	1	r.free	34	2292	9
102413	11:00	1	r.scissors	35	2174	2
102413	11:00	1	r.lightning	36	3957	6
102413	11:00	1	r.warmth	37	1606	8
102413	11:00	1	r.hairpin	38	2099	8
102413	11:00	1	r.pressure	39	2381	6
102413	11:00	1	r.blase	40	5259	4
102413	11:00	1	r.dignified	41	2360	6
102413	11:00	1	r.whistle	42	5663	5
102413	11:00	1	r.war	43	5787	4
102413	11:00	1	r.burdened	44	3027	2
102413	11:00	1	r.ankle	45	2199	5
102413	11:00	1	r.sentiment	46	1765	6
102413	11:00	1	r.honor	47	3004	7
102413	11:00	1	r.fantasy	48	3210	6
102413	11:00	1	r.art	49	2159	6
102413	11:00	1	r.palace	50	1223	6
102413	11:00	1	r.soft	51	1300	7
102413	11:00	1	r.heaven	52	2013	9
102413	11:00	1	r.debt	53	1770	2
102413	11:00	1	r.putrid	54	1857	3
102413	11:00	1	r.discomfort	55	1645	2
102413	11:00	1	r.handicap	56	1088	2
102413	11:00	1	r.hay	57	1818	2
102413	11:00	1	r.imagine	58	4399	7
102413	11:00	1	r.leprosy	59	3846	3
102413	11:00	1	r.greet	60	3906	4
102413	11:00	1	howtype	1	22427	6
