date	time	subject	trialcode	trialnum	latency	response
101413	10:03	1	speed	1	9815	43
101413	10:03	1	error	2	4151	97
101413	10:03	1	whichhand	3	6152	Right
101413	10:03	1	r.lost	1	11959	3
101413	10:03	1	r.color	2	1994	8
101413	10:03	1	r.girl	3	1638	9
101413	10:03	1	r.ship	4	2507	5
101413	10:03	1	r.hay	5	1621	8
101413	10:03	1	r.vest	6	1929	5
101413	10:03	1	r.disloyal	7	2130	2
101413	10:03	1	r.brave	8	3819	7
101413	10:03	1	r.leisurely	9	2104	6
101413	10:03	1	r.savior	10	1450	9
101413	10:03	1	r.brutal	11	3924	1
101413	10:03	1	r.masturbate	12	2173	1
101413	10:03	1	r.doctor	13	1652	2
101413	10:03	1	r.defiant	14	2568	6
101413	10:03	1	r.save	15	1784	7
101413	10:03	1	r.chair	16	2062	5
101413	10:03	1	r.dreary	17	3104	4
101413	10:03	1	r.letter	18	1579	5
101413	10:03	1	r.engine	19	1952	4
101413	10:03	1	r.chocolate	20	1593	7
101413	10:03	1	r.cottage	21	1709	6
101413	10:03	1	r.blasphemy	22	2156	2
101413	10:03	1	r.obesity	23	2718	1
101413	10:03	1	r.pest	24	1383	2
101413	10:03	1	r.horse	25	1300	9
101413	10:03	1	r.restaurant	26	1959	8
101413	10:03	1	r.bastard	27	1575	2
101413	10:03	1	r.blind	28	1765	5
101413	10:03	1	r.honey	29	1851	7
101413	10:03	1	r.hate	30	2864	2
101413	10:03	1	r.win	31	1907	7
101413	10:03	1	r.milk	32	2021	2
101413	10:03	1	r.messy	33	1593	5
101413	10:03	1	r.honest	34	1464	9
101413	10:03	1	r.grime	35	4482	4
101413	10:03	1	r.dignified	36	1493	8
101413	10:03	1	r.bees	37	3878	5
101413	10:03	1	r.material	38	1258	5
101413	10:03	1	r.urine	39	1133	2
101413	10:03	1	r.scream	40	2990	5
101413	10:03	1	r.insolent	41	2380	7
101413	10:03	1	r.lamb	42	2539	6
101413	10:03	1	r.flag	43	1731	7
101413	10:03	1	r.morbid	44	2395	4
101413	10:03	1	r.palace	45	1353	6
101413	10:03	1	r.astonished	46	1360	6
101413	10:03	1	r.odd	47	1655	6
101413	10:03	1	r.astronaut	48	1619	7
101413	10:03	1	r.wealthy	49	2128	7
101413	10:03	1	r.horror	50	1880	3
101413	10:03	1	r.diver	51	1706	5
101413	10:03	1	r.appliance	52	1708	5
101413	10:03	1	r.affection	53	2102	8
101413	10:03	1	r.violent	54	2679	1
101413	10:03	1	r.killer	55	1321	1
101413	10:03	1	r.truth	56	4330	8
101413	10:03	1	r.nude	57	2108	5
101413	10:03	1	r.hand	58	1164	5
101413	10:03	1	r.muddy	59	1748	4
101413	10:03	1	r.tamper	60	1547	4
101413	10:03	1	f.steech	1	2548	4
101413	10:03	1	f.twague	2	3139	6
101413	10:03	1	f.dwoog	3	1484	5
101413	10:03	1	f.chothe	4	1861	7
101413	10:03	1	f.prage	5	1760	6
101413	10:03	1	f.thrage	6	2648	5
101413	10:03	1	f.zape	7	1459	5
101413	10:03	1	f.grashe	8	2567	4
101413	10:03	1	f.glothe	9	1558	8
101413	10:03	1	f.floop	10	1534	5
101413	10:03	1	f.tofe	11	2479	5
101413	10:03	1	f.veesh	12	5135	3
101413	10:03	1	f.gwave	13	3057	7
101413	10:03	1	f.vade	14	2117	6
101413	10:03	1	f.prape	15	2222	3
101413	10:03	1	f.dache	16	4179	7
101413	10:03	1	f.spope	17	1595	5
101413	10:03	1	f.gloge	18	976	5
101413	10:03	1	f.broob	19	1933	5
101413	10:03	1	f.kweege	20	2135	5
101413	10:03	1	f.preel	21	2991	4
101413	10:03	1	f.shrothe	22	1510	6
101413	10:03	1	f.throok	23	1703	6
101413	10:03	1	f.weeth	24	1208	5
101413	10:03	1	f.throre	25	2766	9
101413	10:03	1	f.zore	26	2973	5
101413	10:03	1	f.blashe	27	3275	3
101413	10:03	1	f.preep	28	1287	5
101413	10:03	1	f.gweek	29	1865	5
101413	10:03	1	f.kleesh	30	1436	5
101413	10:03	1	f.snache	31	2999	4
101413	10:03	1	f.bleeth	32	2077	3
101413	10:03	1	f.krabe	33	3343	4
101413	10:03	1	f.toof	34	1776	5
101413	10:03	1	f.shage	35	2519	5
101413	10:03	1	f.broosh	36	1720	6
101413	10:03	1	f.thwole	37	1209	6
101413	10:03	1	f.treek	38	1438	4
101413	10:03	1	f.shroop	39	1866	4
101413	10:03	1	f.spabe	40	1965	4
101413	10:03	1	f.dreeth	41	1275	6
101413	10:03	1	f.spoot	42	1118	5
101413	10:03	1	f.kwoze	43	3102	3
101413	10:03	1	f.noche	44	1697	6
101413	10:03	1	f.kloshe	45	3329	6
101413	10:03	1	f.krage	46	2211	5
101413	10:03	1	f.sweese	47	2535	3
101413	10:03	1	f.prashe	48	2520	4
101413	10:03	1	f.gweeb	49	1785	4
101413	10:03	1	f.yoshe	50	1608	6
101413	10:03	1	f.zofe	51	2462	5
101413	10:03	1	f.keeg	52	2761	4
101413	10:03	1	f.troof	53	1600	5
101413	10:03	1	f.shrogue	54	2028	6
101413	10:03	1	f.snoon	55	1661	5
101413	10:03	1	f.shrone	56	2340	7
101413	10:03	1	f.prale	57	2796	6
101413	10:03	1	f.thwore	58	1889	5
101413	10:03	1	f.froosh	59	1445	5
101413	10:03	1	f.thwoop	60	1256	5
101413	10:03	1	howtype	1	14313	5
101413	10:56	1	speed	1	3085	65
101413	10:56	1	error	2	1943	96
101413	10:56	1	whichhand	3	8270	right
101413	10:56	1	r.pride	1	9349	6
101413	10:56	1	r.killer	2	2967	6
101413	10:56	1	r.table	3	5144	5
101413	10:56	1	r.education	4	5648	8
101413	10:56	1	r.wounds	5	2733	1
101413	10:56	1	r.distressed	6	2821	3
101413	10:56	1	r.bright	7	2267	9
101413	10:56	1	r.flower	8	3534	5
101413	10:56	1	r.farm	9	2583	2
101413	10:56	1	r.frog	10	2653	5
101413	10:56	1	r.greed	11	4553	2
101413	10:56	1	r.penthouse	12	4441	1
101413	10:56	1	r.bland	13	3150	4
101413	10:56	1	r.chance	14	3526	5
101413	10:56	1	r.ulcer	15	1543	1
101413	10:56	1	r.slaughter	16	3070	2
101413	10:56	1	r.zest	17	3682	5
101413	10:56	1	r.noisy	18	2884	9
101413	10:56	1	r.thought	19	4055	9
101413	10:56	1	r.honor	20	4275	6
101413	10:56	1	r.patient	21	2774	5
101413	10:56	1	r.whistle	22	2181	4
101413	10:56	1	r.mold	23	1852	1
101413	10:56	1	r.burial	24	4175	1
101413	10:56	1	r.venom	25	1910	1
101413	10:56	1	r.ambulance	26	2223	2
101413	10:56	1	r.valentine	27	3692	5
101413	10:56	1	r.coast	28	3590	6
101413	10:56	1	r.messy	29	7629	2
101413	10:56	1	r.danger	30	4571	1
101413	10:56	1	r.circus	31	2579	5
101413	10:56	1	r.python	32	2970	5
101413	10:56	1	r.youth	33	1425	5
101413	10:56	1	r.regretful	34	2102	1
101413	10:56	1	r.time	35	2567	1
101413	10:56	1	r.hairpin	36	2998	5
101413	10:56	1	r.troubled	37	1500	1
101413	10:56	1	r.mucus	38	2054	1
101413	10:56	1	r.restaurant	39	1762	5
101413	10:56	1	r.material	40	3793	5
101413	10:56	1	r.wasp	41	1599	1
101413	10:56	1	r.lie	42	1604	3
101413	10:56	1	r.maniac	43	2954	6
101413	10:56	1	r.neglect	44	1434	1
101413	10:56	1	r.mildew	45	2526	1
101413	10:56	1	r.trunk	46	2230	1
101413	10:56	1	r.rabies	47	1362	1
101413	10:56	1	r.heal	48	2345	2
101413	10:56	1	r.deceit	49	1545	1
101413	10:56	1	r.insect	50	1993	4
101413	10:56	1	r.sentiment	51	2359	5
101413	10:56	1	r.column	52	1846	5
101413	10:56	1	r.trash	53	1818	3
101413	10:56	1	r.lottery	54	1791	3
101413	10:56	1	r.inspire	55	5109	5
101413	10:56	1	r.church	56	1991	2
101413	10:56	1	r.wish	57	1981	2
101413	10:56	1	r.sheltered	58	2796	2
101413	10:56	1	r.enjoyment	59	1674	6
101413	10:56	1	r.butterfly	60	1940	9
101413	10:56	1	f.klashe	1	8281	8
101413	10:56	1	f.dwale	2	6925	4
101413	10:56	1	f.skoob	3	1287	1
101413	10:56	1	f.fleef	4	1593	1
101413	10:56	1	f.prothe	5	2735	7
101413	10:56	1	f.foog	6	1471	1
101413	10:56	1	f.broosh	7	1666	1
101413	10:56	1	f.chabe	8	1629	2
101413	10:56	1	f.frogue	9	1753	9
101413	10:56	1	f.joof	10	1336	1
101413	10:56	1	f.dweege	11	1865	1
101413	10:56	1	f.brashe	12	1659	5
101413	10:56	1	f.smobe	13	2734	7
101413	10:56	1	f.throove	14	2191	7
101413	10:56	1	f.gwome	15	2045	8
101413	10:56	1	f.skothe	16	1921	9
101413	10:56	1	f.speesh	17	1586	1
101413	10:56	1	f.flooch	18	1264	2
101413	10:56	1	f.noob	19	1299	2
101413	10:56	1	f.smothe	20	2044	8
101413	10:56	1	f.smoon	21	1240	1
101413	10:56	1	f.swooth	22	2244	5
101413	10:56	1	f.sleesh	23	1719	2
101413	10:56	1	f.proke	24	929	2
101413	10:56	1	f.speeve	25	937	2
101413	10:56	1	f.yoose	26	1441	2
101413	10:56	1	f.shroove	27	1133	2
101413	10:56	1	f.thwobe	28	1933	7
101413	10:56	1	f.tweem	29	933	2
101413	10:56	1	f.twafe	30	989	2
101413	10:56	1	f.skeesh	31	1635	2
101413	10:56	1	f.drooth	32	2751	4
101413	10:56	1	f.thook	33	1079	4
101413	10:56	1	f.kweese	34	2081	1
101413	10:56	1	f.kroosh	35	1667	4
101413	10:56	1	f.stooth	36	2263	4
101413	10:56	1	f.froge	37	2209	6
101413	10:56	1	f.twose	38	1966	2
101413	10:56	1	f.tweeg	39	1518	6
101413	10:56	1	f.twope	40	1358	3
101413	10:56	1	f.swase	41	1917	1
101413	10:56	1	f.skogue	42	791	1
101413	10:56	1	f.snoose	43	1189	1
101413	10:56	1	f.swoog	44	1234	9
101413	10:56	1	f.gwoosh	45	1494	8
101413	10:56	1	f.leel	46	1504	8
101413	10:56	1	f.chood	47	1314	1
101413	10:56	1	f.thofe	48	2498	8
101413	10:56	1	f.twoog	49	2764	2
101413	10:56	1	f.stoche	50	1947	8
101413	10:56	1	f.fafe	51	1891	1
101413	10:56	1	f.ploke	52	1253	1
101413	10:56	1	f.zoog	53	1465	2
101413	10:56	1	f.threed	54	1467	2
101413	10:56	1	f.shrache	55	2726	7
101413	10:56	1	f.sheege	56	2183	4
101413	10:56	1	f.smome	57	2885	7
101413	10:56	1	f.kwoosh	58	1616	3
101413	10:56	1	f.troge	59	2613	7
101413	10:56	1	f.kwade	60	1970	3
101413	10:56	1	howtype	1	8848	7
101413	12:47	1	speed	1	3058	41
101413	12:47	1	error	2	1842	100
101413	12:47	1	whichhand	3	5412	right
101413	12:47	1	r.overwhelmed	1	9960	3
101413	12:47	1	r.punishment	2	5409	1
101413	12:47	1	r.bowl	3	7367	5
101413	12:47	1	r.wish	4	3968	9
101413	12:47	1	r.vigorous	5	3744	4
101413	12:47	1	r.brutal	6	2432	1
101413	12:47	1	r.perfection	7	2365	9
101413	12:47	1	r.slush	8	2292	5
101413	12:47	1	r.blind	9	2829	4
101413	12:47	1	r.kerchief	10	5738	5
101413	12:47	1	r.glacier	11	4837	4
101413	12:47	1	r.manure	12	2170	3
101413	12:47	1	r.shotgun	13	1785	2
101413	12:47	1	r.ulcer	14	2479	3
101413	12:47	1	r.sunset	15	1954	7
101413	12:47	1	r.skeptical	16	3433	5
101413	12:47	1	r.icebox	17	3046	5
101413	12:47	1	r.grief	18	3601	3
101413	12:47	1	r.dancer	19	3072	7
101413	12:47	1	r.carcass	20	4588	4
101413	12:47	1	r.coarse	21	1882	5
101413	12:47	1	r.man	22	2685	8
101413	12:47	1	r.owl	23	2335	8
101413	12:47	1	r.miracle	24	1391	9
101413	12:47	1	r.knowledge	25	1894	9
101413	12:47	1	r.skull	26	2231	4
101413	12:47	1	r.jolly	27	1988	7
101413	12:47	1	r.quart	28	2378	5
101413	12:47	1	r.humane	29	2504	6
101413	12:47	1	r.lamp	30	1978	6
101413	12:47	1	r.delayed	31	2209	4
101413	12:47	1	r.outdoors	32	2454	8
101413	12:47	1	r.bouquet	33	1609	8
101413	12:47	1	r.tool	34	2063	5
101413	12:47	1	r.cheer	35	1762	8
101413	12:47	1	r.nursery	36	1633	8
101413	12:47	1	r.space	37	3333	5
101413	12:47	1	r.food	38	2078	8
101413	12:47	1	r.cow	39	1512	5
101413	12:47	1	r.sailboat	40	1305	5
101413	12:47	1	r.surprised	41	1826	8
101413	12:47	1	r.easygoing	42	1974	6
101413	12:47	1	r.thought	43	2238	5
101413	12:47	1	r.suicide	44	1770	1
101413	12:47	1	r.ace	45	2913	5
101413	12:47	1	r.snuggle	46	2809	7
101413	12:47	1	r.banner	47	2495	5
101413	12:47	1	r.saint	48	3330	6
101413	12:47	1	r.doctor	49	3594	2
101413	12:47	1	r.kindness	50	3680	8
101413	12:47	1	r.habit	51	2299	4
101413	12:47	1	r.useless	52	2029	3
101413	12:47	1	r.kick	53	2553	4
101413	12:47	1	r.plant	54	2360	5
101413	12:47	1	r.insane	55	2336	1
101413	12:47	1	r.abortion	56	1441	1
101413	12:47	1	r.heart	57	3149	7
101413	12:47	1	r.funeral	58	4204	3
101413	12:47	1	r.wise	59	6539	6
101413	12:47	1	r.method	60	2157	5
101413	12:47	1	f.snoove	1	5357	5
101413	12:47	1	f.lole	2	2774	6
101413	12:47	1	f.prage	3	2308	6
101413	12:47	1	f.fleeg	4	1703	5
101413	12:47	1	f.dwache	5	2552	2
101413	12:47	1	f.feech	6	2304	4
101413	12:47	1	f.proke	7	3346	5
101413	12:47	1	f.dreese	8	2138	6
101413	12:47	1	f.snase	9	2233	5
101413	12:47	1	f.steeth	10	2702	4
101413	12:47	1	f.pabe	11	2120	5
101413	12:47	1	f.twache	12	3282	3
101413	12:47	1	f.plashe	13	5035	5
101413	12:47	1	f.shroog	14	2761	4
101413	12:47	1	f.jothe	15	2417	6
101413	12:47	1	f.meesh	16	1862	5
101413	12:47	1	f.kwoob	17	3625	3
101413	12:47	1	f.kreege	18	3414	4
101413	12:47	1	f.jote	19	2227	5
101413	12:47	1	f.swage	20	1591	5
101413	12:47	1	f.sleeb	21	1830	5
101413	12:47	1	f.twoor	22	1818	4
101413	12:47	1	f.thole	23	1991	3
101413	12:47	1	f.steeg	24	1454	5
101413	12:47	1	f.dwope	25	1177	4
101413	12:47	1	f.sleege	26	1359	4
101413	12:47	1	f.sheech	27	1550	4
101413	12:47	1	f.speeve	28	1454	5
101413	12:47	1	f.dooth	29	4593	6
101413	12:47	1	f.pleesh	30	1536	4
101413	12:47	1	f.thwood	31	1496	4
101413	12:47	1	f.shreesh	32	1225	4
101413	12:47	1	f.thwoon	33	1261	4
101413	12:47	1	f.skoose	34	1360	5
101413	12:47	1	f.klole	35	2823	3
101413	12:47	1	f.snone	36	1253	4
101413	12:47	1	f.kweeze	37	1319	5
101413	12:47	1	f.gwogue	38	2480	2
101413	12:47	1	f.noob	39	1091	2
101413	12:47	1	f.zooch	40	1645	2
101413	12:47	1	f.shreese	41	2073	4
101413	12:47	1	f.chooge	42	956	2
101413	12:47	1	f.gwoog	43	490	2
101413	12:47	1	f.vage	44	2061	2
101413	12:47	1	f.joosh	45	1384	5
101413	12:47	1	f.shoge	46	1245	5
101413	12:47	1	f.thwooge	47	1536	4
101413	12:47	1	f.skeeb	48	2618	5
101413	12:47	1	f.thabe	49	1141	5
101413	12:47	1	f.thwave	50	1278	4
101413	12:47	1	f.thwore	51	1073	4
101413	12:47	1	f.thwool	52	3866	5
101413	12:47	1	f.pogue	53	2350	5
101413	12:47	1	f.shrome	54	1542	4
101413	12:47	1	f.swome	55	991	5
101413	12:47	1	f.gwase	56	2117	4
101413	12:47	1	f.skoshe	57	1205	5
101413	12:47	1	f.yeeze	58	1667	6
101413	12:47	1	f.kwade	59	1606	5
101413	12:47	1	f.freef	60	763	5
101413	12:47	1	howtype	1	8896	4
101413	13:28	1	speed	1	2469	49
101413	13:28	1	error	2	1440	100
101413	13:28	1	whichhand	3	6589	right
101413	13:28	1	r.dreary	1	21977	3
101413	13:28	1	r.rough	2	3070	4
101413	13:28	1	r.cord	3	3513	5
101413	13:28	1	r.embarrassed	4	3523	3
101413	13:28	1	r.panic	5	3932	2
101413	13:28	1	r.white	6	2757	5
101413	13:28	1	r.joy	7	4021	9
101413	13:28	1	r.beggar	8	3514	4
101413	13:28	1	r.tomb	9	3955	4
101413	13:28	1	r.scornful	10	3108	3
101413	13:28	1	r.quick	11	2510	5
101413	13:28	1	r.derelict	12	5623	5
101413	13:28	1	r.identity	13	3989	6
101413	13:28	1	r.dignified	14	3564	7
101413	13:28	1	r.glass	15	2476	5
101413	13:28	1	r.sad	16	4486	2
101413	13:28	1	r.useful	17	3129	6
101413	13:28	1	r.danger	18	3570	2
101413	13:28	1	r.riot	19	3778	2
101413	13:28	1	r.coarse	20	6720	4
101413	13:28	1	r.spray	21	4659	5
101413	13:28	1	r.month	22	3190	5
101413	13:28	1	r.gossip	23	3309	4
101413	13:28	1	r.useless	24	2407	4
101413	13:28	1	r.agility	25	3885	6
101413	13:28	1	r.triumphant	26	2160	7
101413	13:28	1	r.devoted	27	2511	7
101413	13:28	1	r.garter	28	4320	5
101413	13:28	1	r.madman	29	3746	4
101413	13:28	1	r.traitor	30	3530	3
101413	13:28	1	r.pig	31	3659	5
101413	13:28	1	r.alien	32	1694	5
101413	13:28	1	r.bastard	33	5640	3
101413	13:28	1	r.nervous	34	6558	3
101413	13:28	1	r.writer	35	1862	5
101413	13:28	1	r.idol	36	6209	5
101413	13:28	1	r.admired	37	3119	6
101413	13:28	1	r.malaria	38	4785	3
101413	13:28	1	r.sunrise	39	6152	8
101413	13:28	1	r.horror	40	8384	1
101413	13:28	1	r.power	41	5529	5
101413	13:28	1	r.sentiment	42	3259	6
101413	13:28	1	r.crucify	43	13614	3
101413	13:28	1	r.snake	44	2535	4
101413	13:28	1	r.devil	45	2608	1
101413	13:28	1	r.inspired	46	5470	7
101413	13:28	1	r.murderer	47	3330	1
101413	13:28	1	r.hand	48	1954	5
101413	13:28	1	r.taste	49	2642	5
101413	13:28	1	r.humane	50	2247	6
101413	13:28	1	r.putrid	51	2931	4
101413	13:28	1	r.journal	52	1475	5
101413	13:28	1	r.hospital	53	5718	5
101413	13:28	1	r.intercourse	54	2536	5
101413	13:28	1	r.alley	55	2577	5
101413	13:28	1	r.dress	56	2719	5
101413	13:28	1	r.humble	57	2352	6
101413	13:28	1	r.noisy	58	2496	4
101413	13:28	1	r.weapon	59	3738	3
101413	13:28	1	r.door	60	1698	5
101413	13:28	1	f.kreesh	1	4703	7
101413	13:28	1	f.drate	2	2506	4
101413	13:28	1	f.dweeve	3	2676	3
101413	13:28	1	f.nage	4	3366	1
101413	13:28	1	f.dwoge	5	1998	1
101413	13:28	1	f.floove	6	3251	6
101413	13:28	1	f.bleel	7	1848	6
101413	13:28	1	f.fleep	8	4515	5
101413	13:28	1	f.blave	9	2981	5
101413	13:28	1	f.tave	10	3228	5
101413	13:28	1	f.veep	11	3000	5
101413	13:28	1	f.stathe	12	2310	4
101413	13:28	1	f.fleef	13	4399	5
101413	13:28	1	f.glooch	14	4766	5
101413	13:28	1	f.throche	15	5285	4
101413	13:28	1	f.flogue	16	2121	3
101413	13:28	1	f.jeet	17	1762	5
101413	13:28	1	f.throosh	18	4185	5
101413	13:28	1	f.peeb	19	3040	4
101413	13:28	1	f.chade	20	2397	4
101413	13:28	1	f.gwafe	21	3762	5
101413	13:28	1	f.krobe	22	4690	5
101413	13:28	1	f.plape	23	4349	5
101413	13:28	1	f.dwoot	24	3445	5
101413	13:28	1	f.threek	25	3785	5
101413	13:28	1	f.mabe	26	3728	5
101413	13:28	1	f.soosh	27	7505	5
101413	13:28	1	f.gweesh	28	3013	5
101413	13:28	1	f.yeeve	29	3106	5
101413	13:28	1	f.thoot	30	4164	5
101413	13:28	1	f.bague	31	4075	4
101413	13:28	1	f.dwoof	32	10863	5
101413	13:28	1	f.drote	33	2213	4
101413	13:28	1	f.shrose	34	2369	4
101413	13:28	1	f.throok	35	3488	4
101413	13:28	1	f.thweeze	36	3787	4
101413	13:28	1	f.moosh	37	2442	5
101413	13:28	1	f.fooch	38	1374	5
101413	13:28	1	f.thrague	39	5461	4
101413	13:28	1	f.dothe	40	2993	4
101413	13:28	1	f.shache	41	3287	5
101413	13:28	1	f.trague	42	2633	3
101413	13:28	1	f.fleeve	43	1694	5
101413	13:28	1	f.peem	44	5880	6
101413	13:28	1	f.joot	45	9419	4
101413	13:28	1	f.stothe	46	2162	4
101413	13:28	1	f.frabe	47	3210	5
101413	13:28	1	f.thrashe	48	3471	4
101413	13:28	1	f.poosh	49	2634	5
101413	13:28	1	f.jathe	50	1639	5
101413	13:28	1	f.steesh	51	5043	5
101413	13:28	1	f.deef	52	6639	5
101413	13:28	1	f.skeeve	53	4333	4
101413	13:28	1	f.plashe	54	2646	5
101413	13:28	1	f.foop	55	3594	6
101413	13:28	1	f.flope	56	2928	6
101413	13:28	1	f.dwope	57	2641	4
101413	13:28	1	f.gwave	58	2877	6
101413	13:28	1	f.twoob	59	3520	5
101413	13:28	1	f.thwoof	60	2682	5
101413	13:28	1	howtype	1	21011	6
101413	15:33	1	speed	1	2632	62
101413	15:33	1	error	2	1903	90
101413	15:33	1	whichhand	3	5609	right
101413	15:33	1	r.dark	1	9396	2
101413	15:33	1	r.manure	2	3788	3
101413	15:33	1	r.aloof	3	4123	7
101413	15:33	1	r.troubled	4	1621	4
101413	15:33	1	r.nurse	5	5937	5
101413	15:33	1	r.solemn	6	1779	4
101413	15:33	1	r.displeased	7	1697	3
101413	15:33	1	r.patriot	8	2787	6
101413	15:33	1	r.bandage	9	3193	4
101413	15:33	1	r.cash	10	2184	7
101413	15:33	1	r.radiant	11	3862	8
101413	15:33	1	r.wish	12	1713	8
101413	15:33	1	r.embattled	13	3042	4
101413	15:33	1	r.bathtub	14	1438	5
101413	15:33	1	r.nonchalant	15	6746	5
101413	15:33	1	r.people	16	1196	5
101413	15:33	1	r.cat	17	2080	4
101413	15:33	1	r.office	18	1819	4
101413	15:33	1	r.dead	19	2120	2
101413	15:33	1	r.chair	20	1913	5
101413	15:33	1	r.legend	21	3081	6
101413	15:33	1	r.stomach	22	2277	5
101413	15:33	1	r.passage	23	1591	6
101413	15:33	1	r.zest	24	1750	7
101413	15:33	1	r.love	25	1381	7
101413	15:33	1	r.cannon	26	2050	4
101413	15:33	1	r.square	27	2047	5
101413	15:33	1	r.avenue	28	1867	6
101413	15:33	1	r.refreshment	29	2374	7
101413	15:33	1	r.gymnast	30	1309	6
101413	15:33	1	r.moment	31	4462	6
101413	15:33	1	r.vanity	32	3290	5
101413	15:33	1	r.rabbit	33	2085	6
101413	15:33	1	r.movie	34	1591	5
101413	15:33	1	r.trunk	35	2213	5
101413	15:33	1	r.adorable	36	2546	6
101413	15:33	1	r.champ	37	3202	6
101413	15:33	1	r.utensil	38	4872	4
101413	15:33	1	r.black	39	2196	4
101413	15:33	1	r.ketchup	40	3850	3
101413	15:33	1	r.ulcer	41	1774	3
101413	15:33	1	r.skeptical	42	2828	7
101413	15:33	1	r.talent	43	5873	6
101413	15:33	1	r.kids	44	1685	5
101413	15:33	1	r.rape	45	1816	2
101413	15:33	1	r.news	46	2244	3
101413	15:33	1	r.hurt	47	881	3
101413	15:33	1	r.consoled	48	2842	4
101413	15:33	1	r.garment	49	2487	4
101413	15:33	1	r.incentive	50	2737	6
101413	15:33	1	r.dirt	51	1658	4
101413	15:33	1	r.kick	52	1429	5
101413	15:33	1	r.slaughter	53	1442	3
101413	15:33	1	r.hostage	54	2006	4
101413	15:33	1	r.frigid	55	1723	4
101413	15:33	1	r.detached	56	2236	4
101413	15:33	1	r.priest	57	3937	4
101413	15:33	1	r.gangrene	58	3417	3
101413	15:33	1	r.museum	59	1575	6
101413	15:33	1	r.father	60	3254	5
101413	15:33	1	f.shache	1	2988	3
101413	15:33	1	f.sheese	2	1123	3
101413	15:33	1	f.blobe	3	1500	6
101413	15:33	1	f.plooge	4	1765	7
101413	15:33	1	f.plape	5	1308	7
101413	15:33	1	f.gwame	6	2398	2
101413	15:33	1	f.teeg	7	1027	3
101413	15:33	1	f.togue	8	1640	3
101413	15:33	1	f.yache	9	1396	4
101413	15:33	1	f.sabe	10	2241	5
101413	15:33	1	f.sleef	11	1589	6
101413	15:33	1	f.steeth	12	2580	4
101413	15:33	1	f.gwoot	13	1698	6
101413	15:33	1	f.chome	14	1564	4
101413	15:33	1	f.thrade	15	1203	4
101413	15:33	1	f.vood	16	2168	6
101413	15:33	1	f.gloche	17	1591	3
101413	15:33	1	f.swoge	18	1597	4
101413	15:33	1	f.slobe	19	907	4
101413	15:33	1	f.thwore	20	1908	6
101413	15:33	1	f.gwothe	21	2814	7
101413	15:33	1	f.droge	22	1731	4
101413	15:33	1	f.tweem	23	1315	7
101413	15:33	1	f.krore	24	1524	3
101413	15:33	1	f.snogue	25	1309	4
101413	15:33	1	f.slashe	26	1006	4
101413	15:33	1	f.smeed	27	1955	6
101413	15:33	1	f.drase	28	1427	4
101413	15:33	1	f.voob	29	1487	6
101413	15:33	1	f.thwooch	30	1729	7
101413	15:33	1	f.thwathe	31	1609	4
101413	15:33	1	f.voosh	32	1143	6
101413	15:33	1	f.plole	33	2719	4
101413	15:33	1	f.sleed	34	1688	6
101413	15:33	1	f.shroot	35	1226	6
101413	15:33	1	f.thwase	36	1223	4
101413	15:33	1	f.thweesh	37	1547	6
101413	15:33	1	f.shreesh	38	1227	6
101413	15:33	1	f.twabe	39	2175	3
101413	15:33	1	f.proche	40	1206	3
101413	15:33	1	f.theet	41	1483	6
101413	15:33	1	f.tofe	42	2917	4
101413	15:33	1	f.glofe	43	1799	4
101413	15:33	1	f.thathe	44	756	4
101413	15:33	1	f.flooch	45	1852	7
101413	15:33	1	f.dweek	46	1039	7
101413	15:33	1	f.swoove	47	883	7
101413	15:33	1	f.gwape	48	2429	7
101413	15:33	1	f.floog	49	905	7
101413	15:33	1	f.slale	50	1723	4
101413	15:33	1	f.yeeg	51	1604	4
101413	15:33	1	f.sloog	52	1249	4
101413	15:33	1	f.throog	53	1853	5
101413	15:33	1	f.skoof	54	1288	6
101413	15:33	1	f.noof	55	890	6
101413	15:33	1	f.brague	56	2948	5
101413	15:33	1	f.thashe	57	2044	4
101413	15:33	1	f.swool	58	1816	6
101413	15:33	1	f.kwobe	59	1557	4
101413	15:33	1	f.thoog	60	2548	6
101413	15:33	1	howtype	1	9491	4
101413	15:57	1	speed	1	3393	64
101413	15:57	1	error	2	1687	92
101413	15:57	1	whichhand	3	5426	right
101413	15:57	1	r.talent	1	8834	5
101413	15:57	1	r.decompose	2	5433	1
101413	15:57	1	r.basket	3	5614	5
101413	15:57	1	r.scurvy	4	5108	6
101413	15:57	1	r.tragedy	5	2614	2
101413	15:57	1	r.friendly	6	2523	7
101413	15:57	1	r.dark	7	2324	3
101413	15:57	1	r.treat	8	1909	6
101413	15:57	1	r.nurse	9	2367	6
101413	15:57	1	r.glass	10	2158	5
101413	15:57	1	r.dawn	11	2213	8
101413	15:57	1	r.naked	12	3034	3
101413	15:57	1	r.history	13	1895	5
101413	15:57	1	r.secure	14	2504	7
101413	15:57	1	r.circle	15	3619	5
101413	15:57	1	r.good	16	1552	6
101413	15:57	1	r.writer	17	1783	5
101413	15:57	1	r.patent	18	3518	6
101413	15:57	1	r.salad	19	2295	5
101413	15:57	1	r.concentrate	20	2897	4
101413	15:57	1	r.umbrella	21	2707	5
101413	15:57	1	r.wedding	22	2933	7
101413	15:57	1	r.month	23	2941	6
101413	15:57	1	r.luxury	24	4798	8
101413	15:57	1	r.punishment	25	2100	3
101413	15:57	1	r.village	26	3702	7
101413	15:57	1	r.headache	27	3336	4
101413	15:57	1	r.love	28	4449	8
101413	15:57	1	r.agony	29	2149	2
101413	15:57	1	r.freedom	30	3517	9
101413	15:57	1	r.vacation	31	1927	8
101413	15:57	1	r.broken	32	2423	3
101413	15:57	1	r.thorn	33	5716	4
101413	15:57	1	r.arm	34	1478	5
101413	15:57	1	r.holiday	35	2136	8
101413	15:57	1	r.clumsy	36	3865	5
101413	15:57	1	r.sour	37	2204	4
101413	15:57	1	r.dazzle	38	2426	7
101413	15:57	1	r.depression	39	2735	3
101413	15:57	1	r.insult	40	3167	3
101413	15:57	1	r.rage	41	1598	2
101413	15:57	1	r.army	42	3236	5
101413	15:57	1	r.putrid	43	3448	2
101413	15:57	1	r.danger	44	1781	3
101413	15:57	1	r.comedy	45	1811	6
101413	15:57	1	r.crude	46	3199	4
101413	15:57	1	r.cute	47	2174	6
101413	15:57	1	r.lie	48	2565	4
101413	15:57	1	r.traitor	49	5052	2
101413	15:57	1	r.massacre	50	1585	1
101413	15:57	1	r.irritate	51	2279	4
101413	15:57	1	r.stool	52	3625	2
101413	15:57	1	r.moody	53	1942	4
101413	15:57	1	r.discouraged	54	1686	4
101413	15:57	1	r.hardship	55	2568	4
101413	15:57	1	r.wish	56	2616	6
101413	15:57	1	r.stiff	57	1325	5
101413	15:57	1	r.tank	58	3013	5
101413	15:57	1	r.letter	59	1851	5
101413	15:57	1	r.inspired	60	1654	7
101413	15:57	1	f.shrate	1	7735	4
101413	15:57	1	f.blathe	2	3274	4
101413	15:57	1	f.droge	3	2053	3
101413	15:57	1	f.threege	4	4720	3
101413	15:57	1	f.snabe	5	3594	4
101413	15:57	1	f.freef	6	5505	5
101413	15:57	1	f.drooch	7	2875	4
101413	15:57	1	f.mathe	8	3663	3
101413	15:57	1	f.shage	9	2322	5
101413	15:57	1	f.dwathe	10	1843	5
101413	15:57	1	f.pobe	11	5023	6
101413	15:57	1	f.smeep	12	2373	7
101413	15:57	1	f.tage	13	4652	4
101413	15:57	1	f.klood	14	1952	3
101413	15:57	1	f.skame	15	3560	4
101413	15:57	1	f.swogue	16	1624	5
101413	15:57	1	f.grare	17	3300	5
101413	15:57	1	f.yobe	18	2590	5
101413	15:57	1	f.floge	19	1829	4
101413	15:57	1	f.thrathe	20	2809	5
101413	15:57	1	f.proke	21	1990	4
101413	15:57	1	f.kwooze	22	1932	7
101413	15:57	1	f.yoon	23	1997	6
101413	15:57	1	f.shrashe	24	2666	4
101413	15:57	1	f.prooge	25	2542	3
101413	15:57	1	f.pleel	26	2222	7
101413	15:57	1	f.gloof	27	1547	6
101413	15:57	1	f.freesh	28	2675	6
101413	15:57	1	f.slague	29	1366	5
101413	15:57	1	f.thool	30	1741	5
101413	15:57	1	f.voosh	31	7445	5
101413	15:57	1	f.skeege	32	1194	5
101413	15:57	1	f.klobe	33	5440	4
101413	15:57	1	f.preet	34	1653	4
101413	15:57	1	f.sabe	35	2153	5
101413	15:57	1	f.throge	36	1905	5
101413	15:57	1	f.thweeve	37	1506	5
101413	15:57	1	f.fleech	38	3188	3
101413	15:57	1	f.stache	39	2250	5
101413	15:57	1	f.yeege	40	1982	6
101413	15:57	1	f.slode	41	3676	5
101413	15:57	1	f.glale	42	1679	7
101413	15:57	1	f.noshe	43	1945	6
101413	15:57	1	f.smose	44	2329	5
101413	15:57	1	f.leesh	45	4289	5
101413	15:57	1	f.shreege	46	2684	3
101413	15:57	1	f.jashe	47	2039	4
101413	15:57	1	f.preeth	48	1555	5
101413	15:57	1	f.groge	49	2595	4
101413	15:57	1	f.flage	50	3313	5
101413	15:57	1	f.flague	51	2322	5
101413	15:57	1	f.joot	52	1675	6
101413	15:57	1	f.jeef	53	1998	4
101413	15:57	1	f.zore	54	2268	3
101413	15:57	1	f.sneem	55	2607	4
101413	15:57	1	f.krage	56	1757	3
101413	15:57	1	f.twoop	57	2580	7
101413	15:57	1	f.chogue	58	1034	5
101413	15:57	1	f.gweet	59	2447	6
101413	15:57	1	f.brare	60	2098	5
101413	15:57	1	howtype	1	25914	6
101413	16:28	1	speed	1	3107	51
101413	16:28	1	error	2	1996	96
101413	16:28	1	whichhand	3	6948	right
101413	16:28	1	f.kwoove	1	11544	9
101413	16:28	1	f.neesh	2	11578	5
101413	16:28	1	f.gwaze	3	3971	2
101413	16:28	1	f.zoosh	4	4707	4
101413	16:28	1	f.sweel	5	5822	4
101413	16:28	1	f.krabe	6	5844	5
101413	16:28	1	f.thwone	7	5673	5
101413	16:28	1	f.prame	8	3685	3
101413	16:28	1	f.peeb	9	6224	3
101413	16:28	1	f.jome	10	1830	3
101413	16:28	1	f.thrage	11	1970	2
101413	16:28	1	f.wache	12	6937	3
101413	16:28	1	f.twoche	13	3187	6
101413	16:28	1	f.proge	14	3450	2
101413	16:28	1	f.thwoom	15	5742	6
101413	16:28	1	f.thwooze	16	3759	6
101413	16:28	1	f.dwood	17	3550	5
101413	16:28	1	f.spague	18	4135	4
101413	16:28	1	f.thade	19	4744	4
101413	16:28	1	f.throop	20	2016	5
101413	16:28	1	f.kwague	21	3333	4
101413	16:28	1	f.thoof	22	5918	5
101413	16:28	1	f.zake	23	3936	4
101413	16:28	1	f.foof	24	4041	8
101413	16:28	1	f.smoose	25	3294	8
101413	16:28	1	f.bashe	26	1896	4
101413	16:28	1	f.smove	27	6273	8
101413	16:28	1	f.skashe	28	4510	5
101413	16:28	1	f.thweech	29	4368	5
101413	16:28	1	f.kwobe	30	6567	5
101413	16:28	1	f.pleef	31	3720	6
101413	16:28	1	f.kague	32	5273	6
101413	16:28	1	f.fogue	33	2933	6
101413	16:28	1	f.meesh	34	4550	6
101413	16:28	1	f.threed	35	3582	6
101413	16:28	1	f.thrape	36	4237	2
101413	16:28	1	f.sleech	37	3698	3
101413	16:28	1	f.droob	38	5380	4
101413	16:28	1	f.smashe	39	4868	3
101413	16:28	1	f.boog	40	2336	4
101413	16:28	1	f.kwooch	41	2144	6
101413	16:28	1	f.cheed	42	6959	4
101413	16:28	1	f.lache	43	2889	4
101413	16:28	1	f.stoof	44	5219	6
101413	16:28	1	f.treek	45	3233	6
101413	16:28	1	f.veed	46	4878	5
101413	16:28	1	f.shrose	47	5441	7
101413	16:28	1	f.gweeg	48	2278	5
101413	16:28	1	f.shreege	49	3041	6
101413	16:28	1	f.prathe	50	6653	6
101413	16:28	1	f.dreed	51	2091	2
101413	16:28	1	f.plole	52	2221	4
101413	16:28	1	f.beeve	53	2882	5
101413	16:28	1	f.slool	54	3525	4
101413	16:28	1	f.spave	55	5526	6
101413	16:28	1	f.thode	56	3911	7
101413	16:28	1	f.meeth	57	3569	6
101413	16:28	1	f.yape	58	3329	8
101413	16:28	1	f.gwashe	59	4121	8
101413	16:28	1	f.floove	60	1667	8
101413	16:28	1	r.evil	1	2584	1
101413	16:28	1	r.ugly	2	9614	2
101413	16:28	1	r.proud	3	2158	9
101413	16:28	1	r.journal	4	5453	6
101413	16:28	1	r.refreshment	5	2306	9
101413	16:28	1	r.interest	6	9116	8
101413	16:28	1	r.overwhelmed	7	1935	1
101413	16:28	1	r.cook	8	3015	8
101413	16:28	1	r.dreadful	9	2197	1
101413	16:28	1	r.doll	10	3675	7
101413	16:28	1	r.shy	11	10318	5
101413	16:28	1	r.elbow	12	7201	5
101413	16:28	1	r.insult	13	3201	1
101413	16:28	1	r.time	14	2735	9
101413	16:28	1	r.kindness	15	1632	9
101413	16:28	1	r.shamed	16	1627	1
101413	16:28	1	r.thankful	17	5800	9
101413	16:28	1	r.sun	18	1623	9
101413	16:28	1	r.dress	19	1468	9
101413	16:28	1	r.useless	20	2406	1
101413	16:28	1	r.funeral	21	1996	1
101413	16:28	1	r.favor	22	1610	9
101413	16:28	1	r.umbrella	23	2559	8
101413	16:28	1	r.immoral	24	1623	1
101413	16:28	1	r.shriek	25	2795	2
101413	16:28	1	r.sissy	26	2161	2
101413	16:28	1	r.lust	27	2208	4
101413	16:28	1	r.scholar	28	2862	5
101413	16:28	1	r.pillow	29	2417	7
101413	16:28	1	r.orchestra	30	1630	2
101413	16:28	1	r.naked	31	5210	4
101413	16:28	1	r.item	32	1752	5
101413	16:28	1	r.hydrant	33	1488	5
101413	16:28	1	r.song	34	1698	8
101413	16:28	1	r.cheer	35	1260	8
101413	16:28	1	r.dagger	36	1775	2
101413	16:28	1	r.employment	37	4965	8
101413	16:28	1	r.bar	38	2757	8
101413	16:28	1	r.fungus	39	1653	1
101413	16:28	1	r.mantel	40	1777	5
101413	16:28	1	r.pencil	41	5839	5
101413	16:28	1	r.execution	42	1701	1
101413	16:28	1	r.sphere	43	1974	1
101413	16:28	1	r.bottle	44	4221	5
101413	16:28	1	r.locker	45	1515	5
101413	16:28	1	r.detail	46	2980	8
101413	16:28	1	r.daylight	47	1666	9
101413	16:28	1	r.gossip	48	5261	4
101413	16:28	1	r.vigorous	49	1921	1
101413	16:28	1	r.cuisine	50	3362	3
101413	16:28	1	r.beach	51	1746	9
101413	16:28	1	r.damage	52	2393	1
101413	16:28	1	r.indifferent	53	4502	4
101413	16:28	1	r.activate	54	2409	9
101413	16:28	1	r.mother	55	1438	9
101413	16:28	1	r.nasty	56	1291	1
101413	16:28	1	r.nun	57	2557	2
101413	16:28	1	r.good	58	1788	9
101413	16:28	1	r.lump	59	3363	4
101413	16:28	1	r.reverent	60	2346	2
101413	16:28	1	howtype	1	10990	5
101513	10:06	1	speed	1	3058	55
101513	10:06	1	error	2	1549	94
101513	10:06	1	whichhand	3	11141	left
101513	10:06	1	f.kreer	1	6440	2
101513	10:06	1	f.breesh	2	7069	4
101513	10:06	1	f.gweeth	3	4274	3
101513	10:06	1	f.gwome	4	4861	5
101513	10:06	1	f.pleeth	5	3042	6
101513	10:06	1	f.zore	6	4510	8
101513	10:06	1	f.jeesh	7	4352	5
101513	10:06	1	f.flothe	8	3209	6
101513	10:06	1	f.breeg	9	3606	4
101513	10:06	1	f.drooze	10	8972	6
101513	10:06	1	f.yeege	11	3597	8
101513	10:06	1	f.blale	12	2628	7
101513	10:06	1	f.steesh	13	2952	6
101513	10:06	1	f.grooch	14	4184	5
101513	10:06	1	f.ploge	15	3431	3
101513	10:06	1	f.boog	16	5884	5
101513	10:06	1	f.skathe	17	4199	2
101513	10:06	1	f.fleege	18	4414	4
101513	10:06	1	f.sposhe	19	6099	4
101513	10:06	1	f.yoshe	20	2966	6
101513	10:06	1	f.thwale	21	5925	3
101513	10:06	1	f.frogue	22	4359	4
101513	10:06	1	f.dwoog	23	4647	5
101513	10:06	1	f.gwoze	24	3515	2
101513	10:06	1	f.droog	25	6069	3
101513	10:06	1	f.neege	26	3137	6
101513	10:06	1	f.zabe	27	3266	7
101513	10:06	1	f.sleech	28	2821	7
101513	10:06	1	f.snose	29	3019	2
101513	10:06	1	f.weech	30	2928	3
101513	10:06	1	f.stoosh	31	5880	3
101513	10:06	1	f.shrope	32	2676	3
101513	10:06	1	f.skeese	33	2775	7
101513	10:06	1	f.vooge	34	2726	4
101513	10:06	1	f.vofe	35	2454	3
101513	10:06	1	f.kague	36	7074	4
101513	10:06	1	f.sleef	37	3990	5
101513	10:06	1	f.jame	38	4622	5
101513	10:06	1	f.pobe	39	3275	6
101513	10:06	1	f.chode	40	4422	4
101513	10:06	1	f.kreeth	41	3036	3
101513	10:06	1	f.pleech	42	3217	6
101513	10:06	1	f.sneem	43	3102	5
101513	10:06	1	f.fleesh	44	2640	7
101513	10:06	1	f.flooch	45	2060	8
101513	10:06	1	f.yeet	46	1734	8
101513	10:06	1	f.skofe	47	3399	4
101513	10:06	1	f.yape	48	2142	4
101513	10:06	1	f.thote	49	2942	3
101513	10:06	1	f.feech	50	3287	3
101513	10:06	1	f.swoose	51	2344	7
101513	10:06	1	f.veep	52	4753	3
101513	10:06	1	f.bleeth	53	1874	4
101513	10:06	1	f.kwobe	54	1965	4
101513	10:06	1	f.thrafe	55	1828	3
101513	10:06	1	f.grague	56	3088	2
101513	10:06	1	f.yache	57	2626	4
101513	10:06	1	f.jashe	58	2007	8
101513	10:06	1	f.stafe	59	3181	6
101513	10:06	1	f.kwose	60	6939	5
101513	10:06	1	r.trophy	1	4988	8
101513	10:06	1	r.nonchalant	2	2091	8
101513	10:06	1	r.rape	3	2237	1
101513	10:06	1	r.pancakes	4	2298	9
101513	10:06	1	r.crown	5	2076	8
101513	10:06	1	r.car	6	3119	5
101513	10:06	1	r.knot	7	2160	4
101513	10:06	1	r.fearful	8	1655	2
101513	10:06	1	r.alley	9	1891	2
101513	10:06	1	r.column	10	1677	5
101513	10:06	1	r.pinch	11	3343	1
101513	10:06	1	r.coffin	12	1287	1
101513	10:06	1	r.beverage	13	1881	8
101513	10:06	1	r.startled	14	2091	2
101513	10:06	1	r.heroin	15	1214	1
101513	10:06	1	r.spring	16	1434	9
101513	10:06	1	r.vehicle	17	1303	5
101513	10:06	1	r.moral	18	2816	8
101513	10:06	1	r.irritate	19	1701	2
101513	10:06	1	r.revolver	20	1407	1
101513	10:06	1	r.flag	21	2884	7
101513	10:06	1	r.ugly	22	1351	2
101513	10:06	1	r.repentant	23	2982	7
101513	10:06	1	r.face	24	2421	7
101513	10:06	1	r.rude	25	1378	2
101513	10:06	1	r.abduction	26	1160	1
101513	10:06	1	r.flood	27	1759	2
101513	10:06	1	r.termite	28	1374	1
101513	10:06	1	r.alimony	29	1997	5
101513	10:06	1	r.moment	30	4227	7
101513	10:06	1	r.milk	31	2776	8
101513	10:06	1	r.dark	32	1551	2
101513	10:06	1	r.limber	33	3318	7
101513	10:06	1	r.danger	34	1439	2
101513	10:06	1	r.hand	35	2051	7
101513	10:06	1	r.pressure	36	3063	2
101513	10:06	1	r.spanking	37	1442	1
101513	10:06	1	r.politeness	38	1685	9
101513	10:06	1	r.rattle	39	3472	3
101513	10:06	1	r.toxic	40	1188	1
101513	10:06	1	r.board	41	4618	5
101513	10:06	1	r.hairpin	42	3416	5
101513	10:06	1	r.joyful	43	1350	9
101513	10:06	1	r.plane	44	2092	7
101513	10:06	1	r.good	45	2086	8
101513	10:06	1	r.grin	46	2160	9
101513	10:06	1	r.snob	47	1335	2
101513	10:06	1	r.vampire	48	3208	2
101513	10:06	1	r.bench	49	3086	7
101513	10:06	1	r.legend	50	1513	8
101513	10:06	1	r.prestige	51	3297	7
101513	10:06	1	r.dreary	52	1795	2
101513	10:06	1	r.kerosene	53	3584	4
101513	10:06	1	r.cash	54	1914	8
101513	10:06	1	r.carefree	55	1864	8
101513	10:06	1	r.god	56	1403	9
101513	10:06	1	r.pizza	57	1560	8
101513	10:06	1	r.punishment	58	2647	2
101513	10:06	1	r.fame	59	2243	7
101513	10:06	1	r.secure	60	4151	8
101513	10:06	1	howtype	1	14214	6
101513	11:31	1	speed	1	3187	48
101513	11:31	1	error	2	1917	100
101513	11:31	1	whichhand	3	10358	right
101513	11:31	1	f.pleege	1	12509	6
101513	11:31	1	f.toshe	2	5538	7
101513	11:31	1	f.skoob	3	4067	8
101513	11:31	1	f.gleeth	4	2327	5
101513	11:31	1	f.yeen	5	4687	6
101513	11:31	1	f.throme	6	1947	4
101513	11:31	1	f.trome	7	2114	5
101513	11:31	1	f.frobe	8	2163	8
101513	11:31	1	f.gloose	9	5514	4
101513	11:31	1	f.rashe	10	4052	7
101513	11:31	1	f.prage	11	2032	3
101513	11:31	1	f.kroshe	12	3044	5
101513	11:31	1	f.kwoshe	13	2809	8
101513	11:31	1	f.stathe	14	4535	3
101513	11:31	1	f.kreef	15	1672	5
101513	11:31	1	f.gwooch	16	2403	6
101513	11:31	1	f.kwose	17	2192	7
101513	11:31	1	f.fabe	18	3255	2
101513	11:31	1	f.dwoor	19	2291	3
101513	11:31	1	f.gwave	20	1541	5
101513	11:31	1	f.shrogue	21	3469	8
101513	11:31	1	f.dwore	22	1513	8
101513	11:31	1	f.prathe	23	2418	5
101513	11:31	1	f.gweesh	24	2175	8
101513	11:31	1	f.smode	25	2174	5
101513	11:31	1	f.swoze	26	3973	3
101513	11:31	1	f.klobe	27	1732	5
101513	11:31	1	f.flave	28	2629	8
101513	11:31	1	f.snove	29	6873	5
101513	11:31	1	f.gwogue	30	3470	7
101513	11:31	1	f.dwoke	31	5705	4
101513	11:31	1	f.krafe	32	4755	5
101513	11:31	1	f.drafe	33	3885	3
101513	11:31	1	f.zoche	34	1920	3
101513	11:31	1	f.gleege	35	3048	5
101513	11:31	1	f.seech	36	2084	6
101513	11:31	1	f.fleeve	37	1615	6
101513	11:31	1	f.gweel	38	1636	7
101513	11:31	1	f.dwooge	39	3664	7
101513	11:31	1	f.thoof	40	2427	8
101513	11:31	1	f.twoom	41	2728	6
101513	11:31	1	f.snoove	42	1376	7
101513	11:31	1	f.leel	43	2182	5
101513	11:31	1	f.breer	44	1677	4
101513	11:31	1	f.joosh	45	3326	4
101513	11:31	1	f.kweeve	46	2728	5
101513	11:31	1	f.kwoose	47	2112	5
101513	11:31	1	f.thwope	48	6737	7
101513	11:31	1	f.stoosh	49	3539	7
101513	11:31	1	f.slole	50	1812	5
101513	11:31	1	f.tweeg	51	2553	6
101513	11:31	1	f.stoshe	52	2448	5
101513	11:31	1	f.smashe	53	2124	4
101513	11:31	1	f.zove	54	1749	4
101513	11:31	1	f.grage	55	3509	5
101513	11:31	1	f.shrope	56	2423	7
101513	11:31	1	f.teeve	57	2060	5
101513	11:31	1	f.dwoot	58	2687	7
101513	11:31	1	f.gleech	59	1993	6
101513	11:31	1	f.gweeve	60	3367	5
101513	11:31	1	r.arrogant	1	5126	3
101513	11:31	1	r.alive	2	2112	9
101513	11:31	1	r.hand	3	1785	5
101513	11:31	1	r.gun	4	3455	3
101513	11:31	1	r.spanking	5	2675	2
101513	11:31	1	r.hurt	6	1991	1
101513	11:31	1	r.teacher	7	3741	8
101513	11:31	1	r.paint	8	1950	8
101513	11:31	1	r.debt	9	1917	1
101513	11:31	1	r.quick	10	1974	7
101513	11:31	1	r.rescue	11	2045	9
101513	11:31	1	r.heart	12	1945	9
101513	11:31	1	r.shotgun	13	1864	3
101513	11:31	1	r.face	14	1698	5
101513	11:31	1	r.crude	15	2668	4
101513	11:31	1	r.seat	16	1807	5
101513	11:31	1	r.decorate	17	1732	7
101513	11:31	1	r.outdoors	18	2061	9
101513	11:31	1	r.reserved	19	3040	5
101513	11:31	1	r.passion	20	2764	6
101513	11:31	1	r.thankful	21	2100	7
101513	11:31	1	r.woman	22	1917	6
101513	11:31	1	r.smooth	23	2254	7
101513	11:31	1	r.cheer	24	1874	9
101513	11:31	1	r.lazy	25	2349	4
101513	11:31	1	r.brutal	26	1637	2
101513	11:31	1	r.kick	27	1809	3
101513	11:31	1	r.medicine	28	1751	7
101513	11:31	1	r.discouraged	29	1766	4
101513	11:31	1	r.humor	30	1965	8
101513	11:31	1	r.quality	31	3172	7
101513	11:31	1	r.abundance	32	1523	8
101513	11:31	1	r.nectar	33	2068	6
101513	11:31	1	r.fascinate	34	1383	6
101513	11:31	1	r.flabby	35	2037	2
101513	11:31	1	r.building	36	2465	5
101513	11:31	1	r.handsome	37	2397	8
101513	11:31	1	r.rude	38	1601	2
101513	11:31	1	r.hairpin	39	1831	5
101513	11:31	1	r.hinder	40	2436	3
101513	11:31	1	r.devoted	41	3024	7
101513	11:31	1	r.shriek	42	2973	4
101513	11:31	1	r.failure	43	5061	1
101513	11:31	1	r.mobility	44	1985	5
101513	11:31	1	r.beverage	45	1232	5
101513	11:31	1	r.perfume	46	1604	7
101513	11:31	1	r.queen	47	2297	9
101513	11:31	1	r.confused	48	6819	4
101513	11:31	1	r.hit	49	3041	3
101513	11:31	1	r.fault	50	2294	3
101513	11:31	1	r.noose	51	2256	1
101513	11:31	1	r.coarse	52	1603	4
101513	11:31	1	r.iron	53	1737	5
101513	11:31	1	r.meek	54	3681	5
101513	11:31	1	r.nonsense	55	2068	5
101513	11:31	1	r.lion	56	1599	6
101513	11:31	1	r.blue	57	1796	6
101513	11:31	1	r.exercise	58	1770	8
101513	11:31	1	r.blasphemy	59	1937	4
101513	11:31	1	r.louse	60	2737	5
101513	11:31	1	howtype	1	9368	4
101513	12:59	1	speed	1	3091	78
101513	12:59	1	error	2	2100	97
101513	12:59	1	whichhand	3	6198	Right
101513	12:59	1	r.rejected	1	13136	1
101513	12:59	1	r.paper	2	3900	5
101513	12:59	1	r.hate	3	1814	1
101513	12:59	1	r.gripe	4	2331	2
101513	12:59	1	r.bored	5	3356	3
101513	12:59	1	r.ocean	6	2516	8
101513	12:59	1	r.snuggle	7	1973	9
101513	12:59	1	r.outdoors	8	2867	8
101513	12:59	1	r.despise	9	2847	1
101513	12:59	1	r.passage	10	1275	5
101513	12:59	1	r.controlling	11	2342	3
101513	12:59	1	r.finger	12	2886	4
101513	12:59	1	r.fire	13	3585	4
101513	12:59	1	r.allergy	14	1992	3
101513	12:59	1	r.hawk	15	1294	5
101513	12:59	1	r.fever	16	1671	3
101513	12:59	1	r.god	17	1610	9
101513	12:59	1	r.disturb	18	1655	4
101513	12:59	1	r.slush	19	2850	6
101513	12:59	1	r.vacation	20	1598	8
101513	12:59	1	r.dreary	21	1308	3
101513	12:59	1	r.unhappy	22	3293	3
101513	12:59	1	r.sexy	23	1447	8
101513	12:59	1	r.scum	24	1971	2
101513	12:59	1	r.virtue	25	2106	7
101513	12:59	1	r.rock	26	1476	6
101513	12:59	1	r.couple	27	1327	7
101513	12:59	1	r.nectar	28	1782	6
101513	12:59	1	r.massacre	29	1773	1
101513	12:59	1	r.employment	30	2084	7
101513	12:59	1	r.rude	31	2590	3
101513	12:59	1	r.stink	32	1380	3
101513	12:59	1	r.proud	33	1274	7
101513	12:59	1	r.abortion	34	1541	1
101513	12:59	1	r.germs	35	1790	2
101513	12:59	1	r.jewel	36	5996	6
101513	12:59	1	r.body	37	2227	6
101513	12:59	1	r.tumor	38	2519	3
101513	12:59	1	r.lazy	39	1304	4
101513	12:59	1	r.custom	40	3233	5
101513	12:59	1	r.chaos	41	7054	4
101513	12:59	1	r.hinder	42	1148	4
101513	12:59	1	r.vigorous	43	2811	6
101513	12:59	1	r.unfaithful	44	3064	2
101513	12:59	1	r.bathtub	45	1755	5
101513	12:59	1	r.kiss	46	1195	8
101513	12:59	1	r.hell	47	1752	2
101513	12:59	1	r.nightmare	48	2136	4
101513	12:59	1	r.game	49	1304	6
101513	12:59	1	r.deceit	50	1650	4
101513	12:59	1	r.hostage	51	2029	1
101513	12:59	1	r.mold	52	1594	1
101513	12:59	1	r.pasta	53	1287	6
101513	12:59	1	r.fragrance	54	1297	6
101513	12:59	1	r.wise	55	3819	5
101513	12:59	1	r.beautiful	56	1312	7
101513	12:59	1	r.material	57	3201	5
101513	12:59	1	r.inspired	58	1231	6
101513	12:59	1	r.method	59	1443	5
101513	12:59	1	r.gossip	60	2167	3
101513	12:59	1	f.nabe	1	1655	4
101513	12:59	1	f.gwothe	2	2083	2
101513	12:59	1	f.jote	3	1733	7
101513	12:59	1	f.yame	4	1453	6
101513	12:59	1	f.threem	5	1625	5
101513	12:59	1	f.floshe	6	2342	4
101513	12:59	1	f.drage	7	1846	3
101513	12:59	1	f.theesh	8	1538	5
101513	12:59	1	f.pleep	9	2434	8
101513	12:59	1	f.thooth	10	2118	6
101513	12:59	1	f.smoof	11	1359	6
101513	12:59	1	f.kreeth	12	959	4
101513	12:59	1	f.threep	13	1278	6
101513	12:59	1	f.droose	14	2248	3
101513	12:59	1	f.sname	15	1180	5
101513	12:59	1	f.slooch	16	1338	3
101513	12:59	1	f.thook	17	1122	3
101513	12:59	1	f.gweef	18	3043	2
101513	12:59	1	f.tweeg	19	1599	4
101513	12:59	1	f.treef	20	1724	5
101513	12:59	1	f.kweesh	21	1637	5
101513	12:59	1	f.zeet	22	1497	6
101513	12:59	1	f.krogue	23	1291	6
101513	12:59	1	f.boove	24	1597	7
101513	12:59	1	f.twove	25	1650	5
101513	12:59	1	f.pobe	26	2230	3
101513	12:59	1	f.joof	27	1674	8
101513	12:59	1	f.gwooge	28	1669	4
101513	12:59	1	f.threeve	29	1272	5
101513	12:59	1	f.thane	30	2043	5
101513	12:59	1	f.droot	31	2903	4
101513	12:59	1	f.gwathe	32	2912	4
101513	12:59	1	f.treeb	33	938	5
101513	12:59	1	f.sleege	34	1474	6
101513	12:59	1	f.kwame	35	1540	4
101513	12:59	1	f.thwoove	36	1005	3
101513	12:59	1	f.feech	37	1130	7
101513	12:59	1	f.smoog	38	946	6
101513	12:59	1	f.gweer	39	1193	5
101513	12:59	1	f.tooge	40	1271	4
101513	12:59	1	f.kwove	41	994	8
101513	12:59	1	f.swathe	42	1287	6
101513	12:59	1	f.flogue	43	1313	6
101513	12:59	1	f.throle	44	1185	4
101513	12:59	1	f.chage	45	1280	5
101513	12:59	1	f.sloob	46	1586	4
101513	12:59	1	f.snoove	47	1344	3
101513	12:59	1	f.freep	48	1007	7
101513	12:59	1	f.dwood	49	701	6
101513	12:59	1	f.throol	50	790	4
101513	12:59	1	f.thoshe	51	1692	3
101513	12:59	1	f.thrague	52	1070	6
101513	12:59	1	f.gothe	53	897	5
101513	12:59	1	f.shrobe	54	1938	5
101513	12:59	1	f.gwoosh	55	1699	6
101513	12:59	1	f.slague	56	1444	3
101513	12:59	1	f.dwogue	57	1744	3
101513	12:59	1	f.bloof	58	943	6
101513	12:59	1	f.skove	59	1038	5
101513	12:59	1	f.chale	60	1506	3
101513	12:59	1	howtype	1	48090	4
101513	13:24	1	speed	1	3013	53
101513	13:24	1	error	2	1992	88
101513	13:24	1	whichhand	3	6775	right
101513	13:24	1	f.dreer	1	9980	4
101513	13:24	1	f.drote	2	5917	2
101513	13:24	1	f.sashe	3	4599	6
101513	13:24	1	f.swooth	4	2958	8
101513	13:24	1	f.smade	5	2862	7
101513	13:24	1	f.chooge	6	4337	4
101513	13:24	1	f.smame	7	4210	1
101513	13:24	1	f.thofe	8	1648	1
101513	13:24	1	f.cheed	9	1956	4
101513	13:24	1	f.dofe	10	1635	2
101513	13:24	1	f.brooth	11	2152	5
101513	13:24	1	f.loche	12	5519	3
101513	13:24	1	f.kwade	13	3433	1
101513	13:24	1	f.frooch	14	1774	1
101513	13:24	1	f.krabe	15	3685	4
101513	13:24	1	f.kroog	16	2960	3
101513	13:24	1	f.smane	17	1703	1
101513	13:24	1	f.dwache	18	1569	1
101513	13:24	1	f.tware	19	1912	3
101513	13:24	1	f.stoche	20	2545	2
101513	13:24	1	f.thood	21	3680	2
101513	13:24	1	f.spogue	22	3459	4
101513	13:24	1	f.klool	23	2118	9
101513	13:24	1	f.gloge	24	3095	3
101513	13:24	1	f.woog	25	2826	8
101513	13:24	1	f.kwooch	26	2918	8
101513	13:24	1	f.choog	27	1944	7
101513	13:24	1	f.thware	28	2791	2
101513	13:24	1	f.doof	29	3190	2
101513	13:24	1	f.smope	30	3380	4
101513	13:24	1	f.kweeve	31	3051	2
101513	13:24	1	f.blague	32	3887	2
101513	13:24	1	f.shrore	33	2322	1
101513	13:24	1	f.theech	34	2763	5
101513	13:24	1	f.feef	35	3178	4
101513	13:24	1	f.thrame	36	3033	2
101513	13:24	1	f.dwoop	37	2021	1
101513	13:24	1	f.chome	38	1931	7
101513	13:24	1	f.thogue	39	2251	2
101513	13:24	1	f.nafe	40	2855	2
101513	13:24	1	f.weeth	41	3227	6
101513	13:24	1	f.koog	42	2215	5
101513	13:24	1	f.thwoke	43	2260	2
101513	13:24	1	f.kwache	44	1767	2
101513	13:24	1	f.gwote	45	2014	3
101513	13:24	1	f.glake	46	3795	4
101513	13:24	1	f.thoog	47	1794	2
101513	13:24	1	f.kweech	48	1655	3
101513	13:24	1	f.vome	49	1867	8
101513	13:24	1	f.thwooch	50	2446	8
101513	13:24	1	f.shoob	51	2265	2
101513	13:24	1	f.gwane	52	2540	2
101513	13:24	1	f.dwood	53	4269	2
101513	13:24	1	f.thweech	54	2096	3
101513	13:24	1	f.zobe	55	3066	1
101513	13:24	1	f.thwood	56	2158	2
101513	13:24	1	f.zeeve	57	1772	3
101513	13:24	1	f.soosh	58	1716	8
101513	13:24	1	f.thoop	59	1789	8
101513	13:24	1	f.twoog	60	2219	3
101513	13:24	1	r.penis	1	5088	1
101513	13:24	1	r.controlling	2	2715	1
101513	13:24	1	r.naked	3	2668	8
101513	13:24	1	r.yacht	4	1935	9
101513	13:24	1	r.song	5	1728	9
101513	13:24	1	r.sin	6	1416	1
101513	13:24	1	r.moral	7	2309	9
101513	13:24	1	r.kerosene	8	3455	5
101513	13:24	1	r.tree	9	3226	5
101513	13:24	1	r.neurotic	10	3471	3
101513	13:24	1	r.spring	11	3715	7
101513	13:24	1	r.terrible	12	1564	1
101513	13:24	1	r.square	13	1995	5
101513	13:24	1	r.teacher	14	1737	8
101513	13:24	1	r.scalding	15	1601	1
101513	13:24	1	r.lottery	16	1591	9
101513	13:24	1	r.waste	17	3269	3
101513	13:24	1	r.bless	18	2312	7
101513	13:24	1	r.fat	19	1337	1
101513	13:24	1	r.excellence	20	1425	9
101513	13:24	1	r.abuse	21	1230	1
101513	13:24	1	r.hotel	22	1922	7
101513	13:24	1	r.ache	23	1603	1
101513	13:24	1	r.book	24	1881	4
101513	13:24	1	r.skull	25	2203	5
101513	13:24	1	r.politeness	26	1824	8
101513	13:24	1	r.orgasm	27	1461	9
101513	13:24	1	r.scream	28	1784	1
101513	13:24	1	r.enjoyment	29	1439	9
101513	13:24	1	r.vagina	30	1507	9
101513	13:24	1	r.honest	31	2588	7
101513	13:24	1	r.coarse	32	1819	1
101513	13:24	1	r.fragrance	33	2496	6
101513	13:24	1	r.trouble	34	1594	2
101513	13:24	1	r.snow	35	1439	9
101513	13:24	1	r.morgue	36	1571	1
101513	13:24	1	r.prestige	37	1634	9
101513	13:24	1	r.wasp	38	1702	3
101513	13:24	1	r.swimmer	39	1864	5
101513	13:24	1	r.phase	40	1915	5
101513	13:24	1	r.tool	41	1812	5
101513	13:24	1	r.easygoing	42	1864	8
101513	13:24	1	r.elated	43	1939	7
101513	13:24	1	r.scum	44	1324	1
101513	13:24	1	r.lice	45	1645	1
101513	13:24	1	r.freedom	46	1728	9
101513	13:24	1	r.hurt	47	1536	2
101513	13:24	1	r.feeble	48	2048	1
101513	13:24	1	r.mystic	49	1884	6
101513	13:24	1	r.muffin	50	1582	9
101513	13:24	1	r.foot	51	1349	1
101513	13:24	1	r.pig	52	1132	1
101513	13:24	1	r.quarrel	53	1916	2
101513	13:24	1	r.exercise	54	1301	9
101513	13:24	1	r.dove	55	1702	7
101513	13:24	1	r.poetry	56	2304	3
101513	13:24	1	r.jewel	57	2498	7
101513	13:24	1	r.cellar	58	1300	1
101513	13:24	1	r.mucus	59	1701	1
101513	13:24	1	r.cut	60	2574	4
101513	13:24	1	howtype	1	20476	1
101513	14:36	1	speed	1	3452	32
101513	14:36	1	error	2	1657	96
101513	14:36	1	whichhand	3	7789	left
101513	14:36	1	f.jofe	1	5664	5
101513	14:36	1	f.cheeb	2	3237	3
101513	14:36	1	f.fleesh	3	1633	3
101513	14:36	1	f.threeth	4	1989	6
101513	14:36	1	f.snofe	5	2644	5
101513	14:36	1	f.zope	6	2608	9
101513	14:36	1	f.thade	7	2085	8
101513	14:36	1	f.throom	8	3520	8
101513	14:36	1	f.drabe	9	2057	3
101513	14:36	1	f.kleep	10	2493	1
101513	14:36	1	f.teesh	11	3079	6
101513	14:36	1	f.weeg	12	1738	7
101513	14:36	1	f.klope	13	2122	5
101513	14:36	1	f.stofe	14	1731	4
101513	14:36	1	f.yeem	15	3027	5
101513	14:36	1	f.teeg	16	2248	2
101513	14:36	1	f.smoog	17	2260	7
101513	14:36	1	f.skeese	18	3470	6
101513	14:36	1	f.twore	19	5914	5
101513	14:36	1	f.throge	20	1132	5
101513	14:36	1	f.blale	21	2172	7
101513	14:36	1	f.feef	22	2707	5
101513	14:36	1	f.freeve	23	1061	5
101513	14:36	1	f.floob	24	1376	4
101513	14:36	1	f.twoove	25	2590	2
101513	14:36	1	f.fooch	26	2101	2
101513	14:36	1	f.zathe	27	1223	1
101513	14:36	1	f.chode	28	5203	5
101513	14:36	1	f.gweeb	29	2706	4
101513	14:36	1	f.klool	30	1948	2
101513	14:36	1	f.stase	31	1684	7
101513	14:36	1	f.gwooge	32	1262	5
101513	14:36	1	f.dreed	33	2529	1
101513	14:36	1	f.brathe	34	2705	6
101513	14:36	1	f.wague	35	1923	2
101513	14:36	1	f.swoove	36	3412	6
101513	14:36	1	f.gwoof	37	2481	1
101513	14:36	1	f.thofe	38	1060	3
101513	14:36	1	f.foche	39	838	5
101513	14:36	1	f.boshe	40	1506	4
101513	14:36	1	f.shroor	41	1316	6
101513	14:36	1	f.thope	42	1533	8
101513	14:36	1	f.throor	43	1109	5
101513	14:36	1	f.dofe	44	1278	4
101513	14:36	1	f.thwoshe	45	1496	3
101513	14:36	1	f.zafe	46	2058	1
101513	14:36	1	f.swathe	47	2189	4
101513	14:36	1	f.thwose	48	1788	4
101513	14:36	1	f.shraze	49	2682	5
101513	14:36	1	f.kwoshe	50	2117	5
101513	14:36	1	f.yoon	51	1766	4
101513	14:36	1	f.dafe	52	2260	3
101513	14:36	1	f.thwaze	53	1048	3
101513	14:36	1	f.kwoosh	54	947	3
101513	14:36	1	f.prape	55	3034	1
101513	14:36	1	f.gwoke	56	983	1
101513	14:36	1	f.stoose	57	1117	1
101513	14:36	1	f.ploke	58	1470	3
101513	14:36	1	f.yogue	59	928	3
101513	14:36	1	f.kloob	60	1384	4
101513	14:36	1	r.ecstasy	1	3781	2
101513	14:36	1	r.dummy	2	1668	2
101513	14:36	1	r.soothe	3	2271	9
101513	14:36	1	r.ridicule	4	1394	9
101513	14:36	1	r.listless	5	1887	5
101513	14:36	1	r.fall	6	2481	9
101513	14:36	1	r.victory	7	1460	7
101513	14:36	1	r.fever	8	2014	2
101513	14:36	1	r.owl	9	2748	5
101513	14:36	1	r.patriot	10	1203	5
101513	14:36	1	r.alcoholic	11	1849	1
101513	14:36	1	r.mind	12	3356	9
101513	14:36	1	r.baby	13	1524	7
101513	14:36	1	r.theory	14	1813	6
101513	14:36	1	r.salad	15	1514	5
101513	14:36	1	r.infection	16	1691	7
101513	14:36	1	r.garter	17	1805	8
101513	14:36	1	r.skeptical	18	2379	3
101513	14:36	1	r.sky	19	1465	5
101513	14:36	1	r.bored	20	2348	2
101513	14:36	1	r.slum	21	1404	4
101513	14:36	1	r.bless	22	1049	4
101513	14:36	1	r.truck	23	1797	9
101513	14:36	1	r.offend	24	3146	3
101513	14:36	1	r.dump	25	1490	7
101513	14:36	1	r.muscular	26	1932	9
101513	14:36	1	r.stress	27	2173	1
101513	14:36	1	r.kettle	28	1739	7
101513	14:36	1	r.sleep	29	1684	9
101513	14:36	1	r.excuse	30	2702	8
101513	14:36	1	r.traitor	31	2656	3
101513	14:36	1	r.banner	32	1708	6
101513	14:36	1	r.museum	33	1293	5
101513	14:36	1	r.grass	34	1463	2
101513	14:36	1	r.noose	35	1954	1
101513	14:36	1	r.swamp	36	1985	9
101513	14:36	1	r.coward	37	2496	2
101513	14:36	1	r.bath	38	2561	9
101513	14:36	1	r.activate	39	3297	6
101513	14:36	1	r.green	40	1987	7
101513	14:36	1	r.prick	41	3465	1
101513	14:36	1	r.ennui	42	2149	3
101513	14:36	1	r.bride	43	2299	9
101513	14:36	1	r.rat	44	3814	2
101513	14:36	1	r.thermometer	45	1747	7
101513	14:36	1	r.diploma	46	1235	5
101513	14:36	1	r.diver	47	1943	9
101513	14:36	1	r.putrid	48	1711	1
101513	14:36	1	r.maniac	49	1688	2
101513	14:36	1	r.infatuation	50	2418	7
101513	14:36	1	r.brutal	51	2047	6
101513	14:36	1	r.excitement	52	3051	9
101513	14:36	1	r.humane	53	4255	8
101513	14:36	1	r.sex	54	7147	5
101513	14:36	1	r.spouse	55	1892	9
101513	14:36	1	r.soft	56	3126	9
101513	14:36	1	r.hammer	57	2175	4
101513	14:36	1	r.pride	58	1990	6
101513	14:36	1	r.farm	59	2717	9
101513	14:36	1	r.urine	60	1838	2
101513	14:36	1	howtype	1	4032	1
101513	15:29	1	speed	1	2954	56
101513	15:29	1	error	2	2269	96
101513	15:29	1	whichhand	3	3953	right
101513	15:29	1	f.glose	1	14610	5
101513	15:29	1	f.sheese	2	8659	3
101513	15:29	1	f.tooge	3	3104	5
101513	15:29	1	f.sneege	4	7882	3
101513	15:29	1	f.thwoge	5	11054	5
101513	15:29	1	f.steeth	6	2837	5
101513	15:29	1	f.kwome	7	2225	5
101513	15:29	1	f.ploshe	8	3630	5
101513	15:29	1	f.gwote	9	6779	4
101513	15:29	1	f.gweer	10	4243	4
101513	15:29	1	f.chothe	11	6439	5
101513	15:29	1	f.broop	12	3005	4
101513	15:29	1	f.kleef	13	2355	5
101513	15:29	1	f.vade	14	2907	3
101513	15:29	1	f.sloosh	15	2741	5
101513	15:29	1	f.brobe	16	2845	5
101513	15:29	1	f.shrare	17	4249	6
101513	15:29	1	f.klooch	18	2766	5
101513	15:29	1	f.gleel	19	3333	5
101513	15:29	1	f.zooge	20	3229	5
101513	15:29	1	f.smale	21	3226	4
101513	15:29	1	f.sneem	22	3215	5
101513	15:29	1	f.vape	23	4164	3
101513	15:29	1	f.klofe	24	2364	5
101513	15:29	1	f.throok	25	3203	5
101513	15:29	1	f.dwoon	26	2713	5
101513	15:29	1	f.shabe	27	3530	5
101513	15:29	1	f.groshe	28	1803	4
101513	15:29	1	f.smeeg	29	1705	5
101513	15:29	1	f.kwashe	30	2474	5
101513	15:29	1	f.troog	31	2046	5
101513	15:29	1	f.slase	32	2473	5
101513	15:29	1	f.slare	33	2996	5
101513	15:29	1	f.jooth	34	2666	5
101513	15:29	1	f.smoosh	35	2477	5
101513	15:29	1	f.steesh	36	3056	4
101513	15:29	1	f.gwale	37	3500	5
101513	15:29	1	f.smeen	38	2246	4
101513	15:29	1	f.gwave	39	1482	5
101513	15:29	1	f.glache	40	3524	5
101513	15:29	1	f.kwope	41	2605	5
101513	15:29	1	f.kwage	42	3659	5
101513	15:29	1	f.twave	43	2791	5
101513	15:29	1	f.frogue	44	3125	5
101513	15:29	1	f.frave	45	2063	6
101513	15:29	1	f.breesh	46	3386	4
101513	15:29	1	f.frache	47	2592	5
101513	15:29	1	f.yase	48	2198	5
101513	15:29	1	f.slabe	49	3508	4
101513	15:29	1	f.kleed	50	4886	4
101513	15:29	1	f.thwoosh	51	2225	5
101513	15:29	1	f.gweef	52	2574	4
101513	15:29	1	f.leesh	53	1589	5
101513	15:29	1	f.kwogue	54	1596	5
101513	15:29	1	f.dwoot	55	1953	5
101513	15:29	1	f.plathe	56	1913	5
101513	15:29	1	f.weech	57	3105	5
101513	15:29	1	f.snoog	58	2036	5
101513	15:29	1	f.smave	59	2160	6
101513	15:29	1	f.froge	60	2159	5
101513	15:29	1	r.frigid	1	3061	4
101513	15:29	1	r.cow	2	1544	5
101513	15:29	1	r.virtue	3	2920	6
101513	15:29	1	r.bored	4	6617	3
101513	15:29	1	r.lion	5	3967	7
101513	15:29	1	r.muffin	6	2335	7
101513	15:29	1	r.mail	7	2648	8
101513	15:29	1	r.smooth	8	1931	5
101513	15:29	1	r.bake	9	2828	8
101513	15:29	1	r.grenade	10	6032	3
101513	15:29	1	r.skeptical	11	3598	3
101513	15:29	1	r.dreadful	12	1908	1
101513	15:29	1	r.respectful	13	1862	9
101513	15:29	1	r.vagina	14	2225	5
101513	15:29	1	r.tumor	15	2229	1
101513	15:29	1	r.table	16	2794	5
101513	15:29	1	r.present	17	4048	8
101513	15:29	1	r.wish	18	2156	5
101513	15:29	1	r.insane	19	4564	1
101513	15:29	1	r.foul	20	1612	1
101513	15:29	1	r.foam	21	3185	5
101513	15:29	1	r.subdued	22	12039	5
101513	15:29	1	r.handsome	23	2838	9
101513	15:29	1	r.medicine	24	6459	7
101513	15:29	1	r.quick	25	2415	7
101513	15:29	1	r.accident	26	1604	1
101513	15:29	1	r.unit	27	1586	5
101513	15:29	1	r.prison	28	1328	1
101513	15:29	1	r.egg	29	4200	5
101513	15:29	1	r.game	30	1430	5
101513	15:29	1	r.thief	31	1322	1
101513	15:29	1	r.machine	32	1579	5
101513	15:29	1	r.nonchalant	33	1513	5
101513	15:29	1	r.crude	34	4114	3
101513	15:29	1	r.aggressive	35	1268	1
101513	15:29	1	r.burial	36	4614	3
101513	15:29	1	r.depressed	37	1588	1
101513	15:29	1	r.cut	38	1154	1
101513	15:29	1	r.promotion	39	1610	9
101513	15:29	1	r.success	40	1374	9
101513	15:29	1	r.vampire	41	2950	5
101513	15:29	1	r.lamp	42	1454	5
101513	15:29	1	r.ridicule	43	2681	3
101513	15:29	1	r.wit	44	2540	5
101513	15:29	1	r.fragrance	45	3284	8
101513	15:29	1	r.solemn	46	2735	5
101513	15:29	1	r.person	47	1239	5
101513	15:29	1	r.dog	48	1467	5
101513	15:29	1	r.watch	49	5494	6
101513	15:29	1	r.discomfort	50	2257	1
101513	15:29	1	r.insecure	51	2205	1
101513	15:29	1	r.aroused	52	4370	7
101513	15:29	1	r.odd	53	3778	4
101513	15:29	1	r.roach	54	1545	1
101513	15:29	1	r.leisurely	55	2121	5
101513	15:29	1	r.humiliate	56	1506	1
101513	15:29	1	r.legend	57	5283	7
101513	15:29	1	r.bath	58	6486	7
101513	15:29	1	r.nurse	59	2130	8
101513	15:29	1	r.dazzle	60	1795	8
101513	15:29	1	howtype	1	23159	3
101613	11:49	1	speed	1	3377	64
101613	11:49	1	error	2	1955	100
101613	11:49	1	whichhand	3	12465	left
101613	11:49	1	r.mind	1	7852	6
101613	11:49	1	r.flag	2	5441	6
101613	11:49	1	r.perfection	3	16652	9
101613	11:49	1	r.scar	4	3965	4
101613	11:49	1	r.adventure	5	2685	9
101613	11:49	1	r.weary	6	2247	3
101613	11:49	1	r.razor	7	2907	2
101613	11:49	1	r.patent	8	3637	5
101613	11:49	1	r.hooker	9	1713	4
101613	11:49	1	r.crushed	10	4225	2
101613	11:49	1	r.dirty	11	1927	3
101613	11:49	1	r.glamour	12	1847	6
101613	11:49	1	r.trophy	13	1634	7
101613	11:49	1	r.absurd	14	2263	5
101613	11:49	1	r.quick	15	1211	6
101613	11:49	1	r.safe	16	1623	9
101613	11:49	1	r.cancer	17	2164	1
101613	11:49	1	r.skull	18	2347	5
101613	11:49	1	r.pressure	19	1722	5
101613	11:49	1	r.immoral	20	1772	4
101613	11:49	1	r.gangrene	21	2203	2
101613	11:49	1	r.hell	22	1936	5
101613	11:49	1	r.bullet	23	1664	3
101613	11:49	1	r.ridicule	24	2123	2
101613	11:49	1	r.humor	25	1533	9
101613	11:49	1	r.deserter	26	2069	4
101613	11:49	1	r.python	27	1720	5
101613	11:49	1	r.soothe	28	2240	7
101613	11:49	1	r.concentrate	29	3900	5
101613	11:49	1	r.brave	30	1326	8
101613	11:49	1	r.prestige	31	1542	7
101613	11:49	1	r.shotgun	32	1766	5
101613	11:49	1	r.vision	33	1325	5
101613	11:49	1	r.pungent	34	1597	4
101613	11:49	1	r.aroused	35	2338	8
101613	11:49	1	r.dinner	36	3106	8
101613	11:49	1	r.mangle	37	1580	2
101613	11:49	1	r.radiator	38	1731	5
101613	11:49	1	r.confident	39	2867	9
101613	11:49	1	r.mischief	40	1975	7
101613	11:49	1	r.impotent	41	3821	5
101613	11:49	1	r.lawn	42	1075	5
101613	11:49	1	r.pollute	43	4677	2
101613	11:49	1	r.love	44	1392	9
101613	11:49	1	r.selfish	45	2605	3
101613	11:49	1	r.knot	46	1395	5
101613	11:49	1	r.inspired	47	1897	9
101613	11:49	1	r.regretful	48	3162	3
101613	11:49	1	r.disloyal	49	1658	1
101613	11:49	1	r.hammer	50	1700	5
101613	11:49	1	r.penalty	51	2583	4
101613	11:49	1	r.infection	52	1782	2
101613	11:49	1	r.dreary	53	2812	4
101613	11:49	1	r.life	54	2416	6
101613	11:49	1	r.addicted	55	2318	1
101613	11:49	1	r.pancakes	56	1951	8
101613	11:49	1	r.freedom	57	1311	9
101613	11:49	1	r.angel	58	902	9
101613	11:49	1	r.enjoyment	59	872	9
101613	11:49	1	r.ecstasy	60	1963	9
101613	11:49	1	f.slogue	1	6355	5
101613	11:49	1	f.drofe	2	2748	5
101613	11:49	1	f.snabe	3	1740	5
101613	11:49	1	f.swoove	4	3243	5
101613	11:49	1	f.dwole	5	1288	5
101613	11:49	1	f.dofe	6	898	5
101613	11:49	1	f.brore	7	4308	5
101613	11:49	1	f.spogue	8	1446	5
101613	11:49	1	f.dweech	9	2529	5
101613	11:49	1	f.prote	10	1058	5
101613	11:49	1	f.jache	11	918	5
101613	11:49	1	f.fleep	12	1590	4
101613	11:49	1	f.noof	13	780	4
101613	11:49	1	f.stabe	14	1802	3
101613	11:49	1	f.snode	15	12415	4
101613	11:49	1	f.grabe	16	1984	5
101613	11:49	1	f.sleeg	17	669	5
101613	11:49	1	f.shroosh	18	1025	5
101613	11:49	1	f.shroge	19	798	5
101613	11:49	1	f.twogue	20	2787	5
101613	11:49	1	f.slabe	21	626	5
101613	11:49	1	f.thane	22	1949	5
101613	11:49	1	f.yose	23	3804	5
101613	11:49	1	f.kwove	24	860	5
101613	11:49	1	f.joom	25	966	5
101613	11:49	1	f.yoop	26	725	5
101613	11:49	1	f.woche	27	2046	5
101613	11:49	1	f.sweeb	28	1065	5
101613	11:49	1	f.theet	29	876	5
101613	11:49	1	f.yofe	30	1215	5
101613	11:49	1	f.twague	31	3571	5
101613	11:49	1	f.yoosh	32	3291	6
101613	11:49	1	f.skose	33	1157	5
101613	11:49	1	f.smafe	34	1125	6
101613	11:49	1	f.dwale	35	1862	5
101613	11:49	1	f.thweeze	36	713	5
101613	11:49	1	f.klode	37	1353	6
101613	11:49	1	f.sloob	38	1801	6
101613	11:49	1	f.sname	39	1389	6
101613	11:49	1	f.froosh	40	1508	6
101613	11:49	1	f.sneen	41	862	6
101613	11:49	1	f.swoge	42	1144	5
101613	11:49	1	f.twose	43	1424	4
101613	11:49	1	f.dwafe	44	933	4
101613	11:49	1	f.loshe	45	1556	5
101613	11:49	1	f.voof	46	1348	4
101613	11:49	1	f.gwale	47	1603	4
101613	11:49	1	f.feech	48	1545	6
101613	11:49	1	f.mashe	49	1009	5
101613	11:49	1	f.gweel	50	1430	6
101613	11:49	1	f.yafe	51	1178	6
101613	11:49	1	f.dwape	52	1232	5
101613	11:49	1	f.preech	53	4116	7
101613	11:49	1	f.trache	54	4366	5
101613	11:49	1	f.shrooge	55	2053	4
101613	11:49	1	f.leech	56	2057	2
101613	11:49	1	f.glashe	57	1645	5
101613	11:49	1	f.thweep	58	1064	5
101613	11:49	1	f.weech	59	1563	5
101613	11:49	1	f.dweem	60	1714	5
101613	11:49	1	howtype	1	11313	6
101613	12:28	1	speed	1	3216	61
101613	12:28	1	error	2	2069	98
101613	12:28	1	whichhand	3	21232	right
101613	12:28	1	r.lantern	1	5638	2
101613	12:28	1	r.column	2	3635	3
101613	12:28	1	r.avenue	3	3240	6
101613	12:28	1	r.tense	4	2205	1
101613	12:28	1	r.learn	5	2226	7
101613	12:28	1	r.surgery	6	2727	1
101613	12:28	1	r.bomb	7	1407	1
101613	12:28	1	r.dazzle	8	2332	8
101613	12:28	1	r.flag	9	2030	5
101613	12:28	1	r.evil	10	1298	1
101613	12:28	1	r.truth	11	2636	9
101613	12:28	1	r.love	12	1823	9
101613	12:28	1	r.chair	13	1469	5
101613	12:28	1	r.disloyal	14	1520	1
101613	12:28	1	r.bereavement	15	3769	5
101613	12:28	1	r.respect	16	2625	9
101613	12:28	1	r.tamper	17	4189	1
101613	12:28	1	r.luxury	18	2117	6
101613	12:28	1	r.urine	19	2230	1
101613	12:28	1	r.building	20	1898	5
101613	12:28	1	r.scissors	21	2396	4
101613	12:28	1	r.grenade	22	1353	1
101613	12:28	1	r.boxer	23	2673	5
101613	12:28	1	r.bath	24	3604	6
101613	12:28	1	r.doctor	25	2467	3
101613	12:28	1	r.poster	26	1581	5
101613	12:28	1	r.easygoing	27	1715	6
101613	12:28	1	r.party	28	1556	6
101613	12:28	1	r.arrogant	29	1980	1
101613	12:28	1	r.fame	30	2570	5
101613	12:28	1	r.timid	31	1770	5
101613	12:28	1	r.frog	32	1951	6
101613	12:28	1	r.greet	33	3056	6
101613	12:28	1	r.useful	34	2163	8
101613	12:28	1	r.nightmare	35	1235	1
101613	12:28	1	r.lightning	36	1887	2
101613	12:28	1	r.patient	37	2321	6
101613	12:28	1	r.brave	38	1418	7
101613	12:28	1	r.agility	39	2671	6
101613	12:28	1	r.outstanding	40	2274	8
101613	12:28	1	r.innocent	41	1758	6
101613	12:28	1	r.hit	42	2085	2
101613	12:28	1	r.insult	43	1839	1
101613	12:28	1	r.protected	44	2523	5
101613	12:28	1	r.gymnast	45	2421	4
101613	12:28	1	r.jealousy	46	2370	1
101613	12:28	1	r.rough	47	1849	2
101613	12:28	1	r.insect	48	1804	1
101613	12:28	1	r.saint	49	3058	8
101613	12:28	1	r.syphilis	50	2630	1
101613	12:28	1	r.ambition	51	2194	7
101613	12:28	1	r.blackmail	52	1496	1
101613	12:28	1	r.discomfort	53	2074	1
101613	12:28	1	r.limber	54	3189	5
101613	12:28	1	r.natural	55	2393	7
101613	12:28	1	r.hate	56	1574	1
101613	12:28	1	r.naked	57	2870	3
101613	12:28	1	r.father	58	2352	9
101613	12:28	1	r.liberty	59	2249	7
101613	12:28	1	r.fur	60	3461	5
101613	12:28	1	f.froove	1	3050	1
101613	12:28	1	f.thabe	2	2231	1
101613	12:28	1	f.kwague	3	2019	5
101613	12:28	1	f.thwoshe	4	2664	6
101613	12:28	1	f.shrove	5	1683	5
101613	12:28	1	f.nathe	6	1436	1
101613	12:28	1	f.kreege	7	2497	7
101613	12:28	1	f.kwoosh	8	2499	7
101613	12:28	1	f.proge	9	1388	5
101613	12:28	1	f.cheel	10	2498	6
101613	12:28	1	f.noof	11	1772	2
101613	12:28	1	f.yoosh	12	1860	6
101613	12:28	1	f.spoop	13	3142	3
101613	12:28	1	f.jeeb	14	2159	7
101613	12:28	1	f.zeeb	15	1591	5
101613	12:28	1	f.flache	16	5485	4
101613	12:28	1	f.zage	17	3671	6
101613	12:28	1	f.shrathe	18	1363	5
101613	12:28	1	f.ploosh	19	2171	8
101613	12:28	1	f.yote	20	1449	6
101613	12:28	1	f.nage	21	1573	5
101613	12:28	1	f.speet	22	2547	7
101613	12:28	1	f.twale	23	2060	4
101613	12:28	1	f.joshe	24	3126	6
101613	12:28	1	f.kwave	25	2119	4
101613	12:28	1	f.yoof	26	2736	5
101613	12:28	1	f.thwothe	27	2217	4
101613	12:28	1	f.swole	28	1798	3
101613	12:28	1	f.thwofe	29	1979	5
101613	12:28	1	f.nafe	30	2226	6
101613	12:28	1	f.thwoof	31	6338	6
101613	12:28	1	f.plathe	32	3063	4
101613	12:28	1	f.jate	33	1706	5
101613	12:28	1	f.floove	34	2387	7
101613	12:28	1	f.swale	35	4530	8
101613	12:28	1	f.sweese	36	2315	7
101613	12:28	1	f.twoof	37	2012	6
101613	12:28	1	f.neege	38	1584	5
101613	12:28	1	f.droze	39	2735	4
101613	12:28	1	f.kweech	40	2240	4
101613	12:28	1	f.dwoge	41	1459	5
101613	12:28	1	f.smogue	42	1846	6
101613	12:28	1	f.zague	43	3938	5
101613	12:28	1	f.zook	44	2026	8
101613	12:28	1	f.thooch	45	2215	5
101613	12:28	1	f.froog	46	2685	8
101613	12:28	1	f.tweel	47	1703	6
101613	12:28	1	f.gwooth	48	1384	5
101613	12:28	1	f.geeth	49	1687	4
101613	12:28	1	f.threer	50	1609	4
101613	12:28	1	f.dreet	51	2094	3
101613	12:28	1	f.skove	52	1512	5
101613	12:28	1	f.thwoob	53	1553	5
101613	12:28	1	f.ploshe	54	3233	7
101613	12:28	1	f.plofe	55	1669	5
101613	12:28	1	f.nofe	56	3728	4
101613	12:28	1	f.greesh	57	2801	3
101613	12:28	1	f.breeg	58	1439	5
101613	12:28	1	f.choom	59	2139	8
101613	12:28	1	f.droot	60	3426	3
101613	12:28	1	howtype	1	8622	6
101613	15:27	1	speed	1	3262	28
101613	15:27	1	error	2	1919	92
101613	15:27	1	whichhand	3	7265	left
101613	15:27	1	r.infatuation	1	13121	5
101613	15:27	1	r.youth	2	3221	9
101613	15:27	1	r.abduction	3	2699	1
101613	15:27	1	r.iron	4	3365	5
101613	15:27	1	r.space	5	2244	5
101613	15:27	1	r.terrible	6	3048	2
101613	15:27	1	r.jelly	7	2692	6
101613	15:27	1	r.hairpin	8	3310	6
101613	15:27	1	r.breast	9	2400	5
101613	15:27	1	r.grateful	10	2558	8
101613	15:27	1	r.thermometer	11	6421	5
101613	15:27	1	r.refreshment	12	5292	9
101613	15:27	1	r.putrid	13	3503	5
101613	15:27	1	r.tank	14	2169	4
101613	15:27	1	r.pinch	15	3640	1
101613	15:27	1	r.busybody	16	4148	5
101613	15:27	1	r.prick	17	1861	1
101613	15:27	1	r.silly	18	1824	8
101613	15:27	1	r.kick	19	2474	2
101613	15:27	1	r.hostile	20	1911	1
101613	15:27	1	r.bastard	21	2728	2
101613	15:27	1	r.spanking	22	7256	1
101613	15:27	1	r.burn	23	1413	1
101613	15:27	1	r.stress	24	1474	1
101613	15:27	1	r.violin	25	5363	6
101613	15:27	1	r.letter	26	1981	5
101613	15:27	1	r.lottery	27	2148	9
101613	15:27	1	r.brave	28	1195	9
101613	15:27	1	r.cyclone	29	1711	1
101613	15:27	1	r.star	30	3064	7
101613	15:27	1	r.traitor	31	5309	2
101613	15:27	1	r.swift	32	4311	5
101613	15:27	1	r.illness	33	2168	1
101613	15:27	1	r.lightbulb	34	4887	5
101613	15:27	1	r.disloyal	35	2731	1
101613	15:27	1	r.body	36	2347	5
101613	15:27	1	r.penthouse	37	2123	9
101613	15:27	1	r.hand	38	1564	5
101613	15:27	1	r.knife	39	1939	2
101613	15:27	1	r.alert	40	1459	2
101613	15:27	1	r.movie	41	1710	5
101613	15:27	1	r.violent	42	2199	1
101613	15:27	1	r.radiator	43	3205	5
101613	15:27	1	r.frog	44	1858	5
101613	15:27	1	r.ridicule	45	2846	3
101613	15:27	1	r.people	46	1810	5
101613	15:27	1	r.grass	47	1839	5
101613	15:27	1	r.ecstasy	48	3787	7
101613	15:27	1	r.bath	49	2986	9
101613	15:27	1	r.enraged	50	2265	1
101613	15:27	1	r.concentrate	51	2476	5
101613	15:27	1	r.ugly	52	2222	1
101613	15:27	1	r.owl	53	2667	4
101613	15:27	1	r.beach	54	1991	9
101613	15:27	1	r.cuddle	55	2005	9
101613	15:27	1	r.kerchief	56	5122	5
101613	15:27	1	r.lighthouse	57	2836	6
101613	15:27	1	r.troubled	58	2505	1
101613	15:27	1	r.rude	59	1251	1
101613	15:27	1	r.mold	60	1551	1
101613	15:27	1	f.thrafe	1	4356	1
101613	15:27	1	f.thweeze	2	4364	5
101613	15:27	1	f.yooze	3	3964	5
101613	15:27	1	f.gween	4	3044	6
101613	15:27	1	f.theech	5	3296	7
101613	15:27	1	f.blage	6	3641	5
101613	15:27	1	f.freef	7	3662	6
101613	15:27	1	f.bleef	8	3498	5
101613	15:27	1	f.gloge	9	4308	4
101613	15:27	1	f.spame	10	2830	4
101613	15:27	1	f.zabe	11	1755	5
101613	15:27	1	f.snose	12	5402	6
101613	15:27	1	f.dreef	13	1577	5
101613	15:27	1	f.shrothe	14	863	5
101613	15:27	1	f.krage	15	594	5
101613	15:27	1	f.kweeze	16	527	5
101613	15:27	1	f.thwose	17	703	5
101613	15:27	1	f.chool	18	632	5
101613	15:27	1	f.swafe	19	676	5
101613	15:27	1	f.thwate	20	1375	5
101613	15:27	1	f.throom	21	709	5
101613	15:27	1	f.shogue	22	487	5
101613	15:27	1	f.gweeb	23	569	5
101613	15:27	1	f.shague	24	535	5
101613	15:27	1	f.breeb	25	607	5
101613	15:27	1	f.dreech	26	644	5
101613	15:27	1	f.cheed	27	727	5
101613	15:27	1	f.skave	28	655	5
101613	15:27	1	f.kogue	29	715	5
101613	15:27	1	f.floop	30	1075	5
101613	15:27	1	f.krashe	31	973	5
101613	15:27	1	f.greege	32	1396	5
101613	15:27	1	f.jeet	33	650	5
101613	15:27	1	f.zote	34	805	5
101613	15:27	1	f.plole	35	914	5
101613	15:27	1	f.grashe	36	947	5
101613	15:27	1	f.thooch	37	1106	5
101613	15:27	1	f.thwake	38	779	5
101613	15:27	1	f.threed	39	729	5
101613	15:27	1	f.proosh	40	721	5
101613	15:27	1	f.prome	41	778	5
101613	15:27	1	f.keeb	42	1024	5
101613	15:27	1	f.plape	43	741	5
101613	15:27	1	f.sneeb	44	884	5
101613	15:27	1	f.twage	45	966	5
101613	15:27	1	f.skage	46	773	5
101613	15:27	1	f.kweege	47	940	5
101613	15:27	1	f.seech	48	948	5
101613	15:27	1	f.thween	49	2499	6
101613	15:27	1	f.kwode	50	1757	5
101613	15:27	1	f.plafe	51	1484	5
101613	15:27	1	f.smoge	52	2958	1
101613	15:27	1	f.seeg	53	2742	5
101613	15:27	1	f.skeeg	54	726	5
101613	15:27	1	f.thrale	55	694	5
101613	15:27	1	f.treef	56	856	5
101613	15:27	1	f.klope	57	689	5
101613	15:27	1	f.choog	58	682	5
101613	15:27	1	f.trook	59	620	5
101613	15:27	1	f.spabe	60	585	5
101613	15:27	1	howtype	1	11966	4
101713	10:56	1	speed	1	2661	29
101713	10:56	1	error	2	2754	93
101713	10:56	1	whichhand	3	9476	Right
101713	10:56	1	r.thankful	1	9320	8
101713	10:56	1	r.thorn	2	4546	3
101713	10:56	1	r.alone	3	2858	2
101713	10:56	1	r.thought	4	3886	5
101713	10:56	1	r.vision	5	2361	7
101713	10:56	1	r.voyage	6	2056	5
101713	10:56	1	r.pervert	7	2675	1
101713	10:56	1	r.travel	8	1782	7
101713	10:56	1	r.scandal	9	3052	3
101713	10:56	1	r.affection	10	4582	7
101713	10:56	1	r.cow	11	2294	5
101713	10:56	1	r.rabbit	12	935	5
101713	10:56	1	r.charm	13	2391	8
101713	10:56	1	r.lazy	14	1638	2
101713	10:56	1	r.building	15	2186	5
101713	10:56	1	r.breeze	16	2792	7
101713	10:56	1	r.twilight	17	1951	5
101713	10:56	1	r.trunk	18	4958	4
101713	10:56	1	r.obesity	19	3326	2
101713	10:56	1	r.grime	20	2399	2
101713	10:56	1	r.upset	21	4661	2
101713	10:56	1	r.horror	22	3377	3
101713	10:56	1	r.contempt	23	2263	5
101713	10:56	1	r.slush	24	2994	5
101713	10:56	1	r.teacher	25	2264	5
101713	10:56	1	r.health	26	4684	8
101713	10:56	1	r.foot	27	1415	5
101713	10:56	1	r.mucus	28	2339	2
101713	10:56	1	r.severe	29	2228	2
101713	10:56	1	r.mobility	30	2592	5
101713	10:56	1	r.cellar	31	2942	5
101713	10:56	1	r.cozy	32	4143	7
101713	10:56	1	r.pig	33	4359	5
101713	10:56	1	r.betray	34	3247	2
101713	10:56	1	r.method	35	3787	5
101713	10:56	1	r.trauma	36	4394	1
101713	10:56	1	r.food	37	3040	8
101713	10:56	1	r.slap	38	2685	2
101713	10:56	1	r.avenue	39	1415	5
101713	10:56	1	r.farm	40	1356	5
101713	10:56	1	r.circus	41	2427	6
101713	10:56	1	r.nectar	42	2095	5
101713	10:56	1	r.birthday	43	1642	9
101713	10:56	1	r.scurvy	44	3326	5
101713	10:56	1	r.weary	45	3806	4
101713	10:56	1	r.waste	46	4916	3
101713	10:56	1	r.metal	47	2031	5
101713	10:56	1	r.insect	48	1987	5
101713	10:56	1	r.outstanding	49	3137	9
101713	10:56	1	r.cut	50	4434	5
101713	10:56	1	r.flag	51	2647	8
101713	10:56	1	r.controlling	52	2091	2
101713	10:56	1	r.bar	53	3525	5
101713	10:56	1	r.foul	54	5287	4
101713	10:56	1	r.rescue	55	2378	8
101713	10:56	1	r.fire	56	1713	1
101713	10:56	1	r.pressure	57	7505	2
101713	10:56	1	r.intruder	58	2789	2
101713	10:56	1	r.jealousy	59	3091	2
101713	10:56	1	r.rat	60	1766	3
101713	10:56	1	f.thwaze	1	3390	5
101713	10:56	1	f.floche	2	821	5
101713	10:56	1	f.flape	3	1449	5
101713	10:56	1	f.yove	4	1389	5
101713	10:56	1	f.freef	5	1715	5
101713	10:56	1	f.kroge	6	1619	5
101713	10:56	1	f.preege	7	865	5
101713	10:56	1	f.ploke	8	843	5
101713	10:56	1	f.sheeg	9	854	5
101713	10:56	1	f.kwade	10	1394	5
101713	10:56	1	f.throoge	11	831	5
101713	10:56	1	f.droze	12	1099	5
101713	10:56	1	f.drooge	13	1500	5
101713	10:56	1	f.klogue	14	1942	5
101713	10:56	1	f.trobe	15	1678	5
101713	10:56	1	f.twofe	16	2752	5
101713	10:56	1	f.krashe	17	2704	5
101713	10:56	1	f.shrool	18	3106	5
101713	10:56	1	f.thrashe	19	3596	4
101713	10:56	1	f.wothe	20	1635	6
101713	10:56	1	f.gwothe	21	2054	4
101713	10:56	1	f.bloob	22	1482	3
101713	10:56	1	f.drathe	23	1908	3
101713	10:56	1	f.chome	24	2974	6
101713	10:56	1	f.shroose	25	1997	6
101713	10:56	1	f.sloshe	26	2099	6
101713	10:56	1	f.throoth	27	2244	6
101713	10:56	1	f.sleem	28	2360	4
101713	10:56	1	f.zoop	29	2415	7
101713	10:56	1	f.steech	30	2053	5
101713	10:56	1	f.dwage	31	1504	4
101713	10:56	1	f.groche	32	3034	4
101713	10:56	1	f.gwoge	33	1526	4
101713	10:56	1	f.dreef	34	3606	3
101713	10:56	1	f.nache	35	2213	4
101713	10:56	1	f.mabe	36	2225	5
101713	10:56	1	f.twape	37	3735	5
101713	10:56	1	f.throke	38	1095	5
101713	10:56	1	f.proche	39	2321	5
101713	10:56	1	f.proosh	40	1058	5
101713	10:56	1	f.vood	41	597	5
101713	10:56	1	f.zoke	42	3065	6
101713	10:56	1	f.stoob	43	3165	5
101713	10:56	1	f.twoob	44	1213	5
101713	10:56	1	f.zade	45	2354	5
101713	10:56	1	f.trake	46	2146	4
101713	10:56	1	f.shrathe	47	5169	5
101713	10:56	1	f.tweeg	48	1857	5
101713	10:56	1	f.frache	49	1261	5
101713	10:56	1	f.dwool	50	2367	3
101713	10:56	1	f.teef	51	5583	5
101713	10:56	1	f.feech	52	3934	5
101713	10:56	1	f.klood	53	1511	5
101713	10:56	1	f.joosh	54	6168	5
101713	10:56	1	f.troog	55	7320	5
101713	10:56	1	f.zeege	56	4645	5
101713	10:56	1	f.joot	57	1137	5
101713	10:56	1	f.glague	58	1961	4
101713	10:56	1	f.dreet	59	1368	5
101713	10:56	1	f.pleep	60	2079	6
101713	10:56	1	howtype	1	10318	4
101713	13:31	1	speed	1	3082	43
101713	13:31	1	error	2	2229	97
101713	13:31	1	whichhand	3	14579	right
101713	13:31	1	r.village	1	7598	9
101713	13:31	1	r.honor	2	3694	9
101713	13:31	1	r.rock	3	2816	1
101713	13:31	1	r.circus	4	4125	4
101713	13:31	1	r.advantage	5	1614	9
101713	13:31	1	r.roach	6	2411	1
101713	13:31	1	r.morgue	7	1320	1
101713	13:31	1	r.laughter	8	1713	9
101713	13:31	1	r.ambition	9	3354	8
101713	13:31	1	r.cemetery	10	1593	1
101713	13:31	1	r.waste	11	999	1
101713	13:31	1	r.incentive	12	2060	9
101713	13:31	1	r.sweetheart	13	1631	9
101713	13:31	1	r.hostile	14	1539	1
101713	13:31	1	r.penis	15	6723	8
101713	13:31	1	r.intruder	16	1614	1
101713	13:31	1	r.loneliness	17	2027	1
101713	13:31	1	r.finger	18	2399	5
101713	13:31	1	r.pity	19	3068	1
101713	13:31	1	r.grime	20	1400	1
101713	13:31	1	r.moment	21	4437	5
101713	13:31	1	r.good	22	2538	9
101713	13:31	1	r.silly	23	1187	9
101713	13:31	1	r.taxi	24	1761	5
101713	13:31	1	r.health	25	3400	5
101713	13:31	1	r.masterful	26	1710	9
101713	13:31	1	r.surgery	27	2847	5
101713	13:31	1	r.bench	28	2795	5
101713	13:31	1	r.disaster	29	1417	1
101713	13:31	1	r.pencil	30	1566	5
101713	13:31	1	r.handicap	31	3037	1
101713	13:31	1	r.astonished	32	2617	1
101713	13:31	1	r.mosquito	33	1510	1
101713	13:31	1	r.nervous	34	1631	1
101713	13:31	1	r.passion	35	1611	9
101713	13:31	1	r.reserved	36	1368	9
101713	13:31	1	r.delight	37	935	9
101713	13:31	1	r.festive	38	1055	9
101713	13:31	1	r.grateful	39	1106	9
101713	13:31	1	r.muscular	40	2908	9
101713	13:31	1	r.horror	41	1349	1
101713	13:31	1	r.athletics	42	1765	9
101713	13:31	1	r.hate	43	1124	1
101713	13:31	1	r.imagine	44	1380	9
101713	13:31	1	r.nursery	45	2283	1
101713	13:31	1	r.rotten	46	1293	1
101713	13:31	1	r.hat	47	1647	5
101713	13:31	1	r.custom	48	2609	5
101713	13:31	1	r.wealthy	49	1543	9
101713	13:31	1	r.wish	50	1359	9
101713	13:31	1	r.divorce	51	1934	1
101713	13:31	1	r.crisis	52	1286	1
101713	13:31	1	r.scissors	53	1273	1
101713	13:31	1	r.patent	54	4515	5
101713	13:31	1	r.free	55	1333	9
101713	13:31	1	r.coffin	56	1141	1
101713	13:31	1	r.scandal	57	2085	1
101713	13:31	1	r.rescue	58	1575	9
101713	13:31	1	r.thermometer	59	2223	5
101713	13:31	1	r.sentiment	60	6212	5
101713	13:31	1	f.treech	1	4300	5
101713	13:31	1	f.jague	2	2526	5
101713	13:31	1	f.smothe	3	4558	5
101713	13:31	1	f.pothe	4	1991	5
101713	13:31	1	f.thweem	5	1821	5
101713	13:31	1	f.swogue	6	1514	5
101713	13:31	1	f.thrache	7	2563	5
101713	13:31	1	f.thrabe	8	2746	5
101713	13:31	1	f.sneeb	9	1170	5
101713	13:31	1	f.blave	10	865	5
101713	13:31	1	f.gwode	11	723	5
101713	13:31	1	f.stabe	12	3356	1
101713	13:31	1	f.skome	13	1236	1
101713	13:31	1	f.twome	14	2512	1
101713	13:31	1	f.plove	15	2537	5
101713	13:31	1	f.kwoshe	16	2522	1
101713	13:31	1	f.thwood	17	2571	5
101713	13:31	1	f.thwope	18	1674	5
101713	13:31	1	f.tweeb	19	1141	5
101713	13:31	1	f.treem	20	1237	5
101713	13:31	1	f.dwache	21	1017	5
101713	13:31	1	f.jofe	22	1141	1
101713	13:31	1	f.zeet	23	782	5
101713	13:31	1	f.twave	24	988	1
101713	13:31	1	f.shrase	25	1097	1
101713	13:31	1	f.kwoose	26	1763	5
101713	13:31	1	f.gweer	27	1234	5
101713	13:31	1	f.thoosh	28	2086	5
101713	13:31	1	f.droche	29	1727	1
101713	13:31	1	f.kwood	30	1272	5
101713	13:31	1	f.kwage	31	2179	5
101713	13:31	1	f.wogue	32	1233	1
101713	13:31	1	f.smeege	33	1366	1
101713	13:31	1	f.smafe	34	1084	1
101713	13:31	1	f.plashe	35	1191	1
101713	13:31	1	f.sneese	36	1765	1
101713	13:31	1	f.thooth	37	2795	5
101713	13:31	1	f.kreeth	38	3209	1
101713	13:31	1	f.theet	39	1447	1
101713	13:31	1	f.dwoon	40	1730	1
101713	13:31	1	f.koog	41	1154	1
101713	13:31	1	f.kwoge	42	881	1
101713	13:31	1	f.sague	43	603	1
101713	13:31	1	f.zoshe	44	665	1
101713	13:31	1	f.smape	45	891	5
101713	13:31	1	f.slose	46	1190	5
101713	13:31	1	f.throche	47	947	1
101713	13:31	1	f.swobe	48	1323	1
101713	13:31	1	f.smoove	49	772	5
101713	13:31	1	f.swoze	50	1922	1
101713	13:31	1	f.spoge	51	1219	5
101713	13:31	1	f.skoose	52	712	5
101713	13:31	1	f.gwobe	53	633	5
101713	13:31	1	f.thwode	54	764	1
101713	13:31	1	f.deeg	55	915	5
101713	13:31	1	f.kloche	56	611	5
101713	13:31	1	f.smobe	57	600	5
101713	13:31	1	f.gweege	58	557	5
101713	13:31	1	f.chogue	59	492	5
101713	13:31	1	f.sneesh	60	534	5
101713	13:31	1	howtype	1	16540	5
101813	12:02	1	speed	1	2940	41
101813	12:02	1	error	2	1728	100
101813	12:02	1	whichhand	3	7977	right
101813	12:02	1	r.swimmer	1	4912	5
101813	12:02	1	r.natural	2	5010	8
101813	12:02	1	r.social	3	3648	6
101813	12:02	1	r.devoted	4	3284	9
101813	12:02	1	r.soft	5	5118	6
101813	12:02	1	r.bandage	6	3065	7
101813	12:02	1	r.caress	7	2445	7
101813	12:02	1	r.heaven	8	2104	9
101813	12:02	1	r.mushroom	9	3906	4
101813	12:02	1	r.vampire	10	3715	3
101813	12:02	1	r.overwhelmed	11	3637	2
101813	12:02	1	r.fish	12	3858	5
101813	12:02	1	r.dirt	13	6470	2
101813	12:02	1	r.injury	14	2930	1
101813	12:02	1	r.shriek	15	6075	4
101813	12:02	1	r.respect	16	2078	9
101813	12:02	1	r.hairdryer	17	2073	6
101813	12:02	1	r.sad	18	1907	1
101813	12:02	1	r.headache	19	1156	1
101813	12:02	1	r.alive	20	2029	8
101813	12:02	1	r.demon	21	3223	1
101813	12:02	1	r.scum	22	1308	1
101813	12:02	1	r.rabies	23	1982	1
101813	12:02	1	r.phase	24	3195	5
101813	12:02	1	r.punishment	25	1826	2
101813	12:02	1	r.naked	26	4389	5
101813	12:02	1	r.treat	27	2061	7
101813	12:02	1	r.kick	28	2169	5
101813	12:02	1	r.idea	29	2206	7
101813	12:02	1	r.tune	30	1901	6
101813	12:02	1	r.deceit	31	3462	3
101813	12:02	1	r.nun	32	1922	5
101813	12:02	1	r.icebox	33	2939	5
101813	12:02	1	r.highway	34	4012	6
101813	12:02	1	r.death	35	4289	1
101813	12:02	1	r.helpless	36	4893	1
101813	12:02	1	r.adorable	37	4727	7
101813	12:02	1	r.office	38	2071	5
101813	12:02	1	r.putrid	39	1147	5
101813	12:02	1	r.invest	40	1755	6
101813	12:02	1	r.custom	41	3154	6
101813	12:02	1	r.restaurant	42	2043	7
101813	12:02	1	r.fear	43	1957	3
101813	12:02	1	r.failure	44	1637	2
101813	12:02	1	r.thief	45	1497	1
101813	12:02	1	r.suicide	46	867	1
101813	12:02	1	r.save	47	1717	8
101813	12:02	1	r.madman	48	2894	3
101813	12:02	1	r.birthday	49	1839	9
101813	12:02	1	r.space	50	1573	8
101813	12:02	1	r.breeze	51	3508	6
101813	12:02	1	r.rejected	52	6765	1
101813	12:02	1	r.sun	53	2389	8
101813	12:02	1	r.exercise	54	1917	7
101813	12:02	1	r.theory	55	1630	5
101813	12:02	1	r.miracle	56	2249	9
101813	12:02	1	r.water	57	2238	6
101813	12:02	1	r.bland	58	2202	4
101813	12:02	1	r.song	59	2511	5
101813	12:02	1	r.father	60	3353	6
101813	12:02	1	f.smeel	1	7156	4
101813	12:02	1	f.dwave	2	6230	5
101813	12:02	1	f.swome	3	3643	3
101813	12:02	1	f.sleech	4	2416	5
101813	12:02	1	f.brooth	5	9141	6
101813	12:02	1	f.thode	6	3127	4
101813	12:02	1	f.trofe	7	2231	7
101813	12:02	1	f.shooch	8	3836	8
101813	12:02	1	f.dofe	9	2201	4
101813	12:02	1	f.vook	10	1862	5
101813	12:02	1	f.thweeth	11	3842	6
101813	12:02	1	f.drate	12	4238	5
101813	12:02	1	f.theek	13	4124	5
101813	12:02	1	f.yeen	14	4860	3
101813	12:02	1	f.thweed	15	2024	7
101813	12:02	1	f.snoosh	16	3662	6
101813	12:02	1	f.plage	17	2897	2
101813	12:02	1	f.skoge	18	4155	1
101813	12:02	1	f.slole	19	3900	3
101813	12:02	1	f.kwose	20	7035	3
101813	12:02	1	f.jeeth	21	5371	7
101813	12:02	1	f.drood	22	2540	4
101813	12:02	1	f.gwoot	23	1108	4
101813	12:02	1	f.spome	24	1558	5
101813	12:02	1	f.swoze	25	1389	6
101813	12:02	1	f.shrooth	26	1755	7
101813	12:02	1	f.frache	27	4451	6
101813	12:02	1	f.trome	28	2608	5
101813	12:02	1	f.thwoob	29	2413	4
101813	12:02	1	f.glooch	30	1626	4
101813	12:02	1	f.dwathe	31	1719	5
101813	12:02	1	f.steeb	32	2015	3
101813	12:02	1	f.shrape	33	3123	2
101813	12:02	1	f.kwoob	34	4254	5
101813	12:02	1	f.bloog	35	2674	6
101813	12:02	1	f.swothe	36	2213	5
101813	12:02	1	f.dwode	37	2289	5
101813	12:02	1	f.grooge	38	1611	7
101813	12:02	1	f.spothe	39	1370	6
101813	12:02	1	f.gloosh	40	1168	5
101813	12:02	1	f.soog	41	567	5
101813	12:02	1	f.dothe	42	309	5
101813	12:02	1	f.snashe	43	542	5
101813	12:02	1	f.leesh	44	260	5
101813	12:02	1	f.slade	45	312	5
101813	12:02	1	f.smeesh	46	320	5
101813	12:02	1	f.threep	47	337	5
101813	12:02	1	f.drooge	48	545	5
101813	12:02	1	f.tweem	49	384	5
101813	12:02	1	f.snooch	50	398	5
101813	12:02	1	f.gwame	51	3499	7
101813	12:02	1	f.stabe	52	1789	5
101813	12:02	1	f.sweel	53	364	5
101813	12:02	1	f.drache	54	402	4
101813	12:02	1	f.nashe	55	807	6
101813	12:02	1	f.gwoose	56	3132	5
101813	12:02	1	f.glooge	57	1228	4
101813	12:02	1	f.zoot	58	488	5
101813	12:02	1	f.meeb	59	635	5
101813	12:02	1	f.plole	60	295	5
101813	12:02	1	howtype	1	11839	3
101813	13:52	1	speed	1	25521	33
101813	13:52	1	error	2	1918	93
101813	13:52	1	whichhand	3	7329	right
101813	13:52	1	f.shreeb	1	9028	3
101813	13:52	1	f.twoche	2	8394	5
101813	13:52	1	f.freeb	3	3403	6
101813	13:52	1	f.sneeve	4	5489	1
101813	13:52	1	f.glothe	5	3308	2
101813	13:52	1	f.chooth	6	3766	1
101813	13:52	1	f.smeeve	7	3654	3
101813	13:52	1	f.slole	8	3082	5
101813	13:52	1	f.skoob	9	2005	5
101813	13:52	1	f.dwate	10	2586	5
101813	13:52	1	f.flage	11	4153	4
101813	13:52	1	f.treeg	12	3753	5
101813	13:52	1	f.freeth	13	1969	6
101813	13:52	1	f.peeg	14	3632	6
101813	13:52	1	f.gleege	15	4060	6
101813	13:52	1	f.trake	16	2537	5
101813	13:52	1	f.shooge	17	3121	4
101813	13:52	1	f.blathe	18	5306	4
101813	13:52	1	f.kwave	19	1389	5
101813	13:52	1	f.dwathe	20	3123	4
101813	13:52	1	f.twoop	21	2333	5
101813	13:52	1	f.proosh	22	2229	6
101813	13:52	1	f.ploge	23	2386	2
101813	13:52	1	f.throosh	24	3816	5
101813	13:52	1	f.fleef	25	3381	5
101813	13:52	1	f.dweesh	26	2996	4
101813	13:52	1	f.gleese	27	5594	5
101813	13:52	1	f.throfe	28	4217	7
101813	13:52	1	f.throor	29	4159	7
101813	13:52	1	f.foob	30	2894	6
101813	13:52	1	f.shroosh	31	3256	5
101813	13:52	1	f.flafe	32	4556	6
101813	13:52	1	f.treech	33	3196	5
101813	13:52	1	f.shrogue	34	2731	3
101813	13:52	1	f.vage	35	3059	3
101813	13:52	1	f.steeb	36	4791	5
101813	13:52	1	f.snoosh	37	3670	5
101813	13:52	1	f.sweeze	38	2025	5
101813	13:52	1	f.tweel	39	2974	4
101813	13:52	1	f.thwope	40	1677	5
101813	13:52	1	f.dwoose	41	1744	5
101813	13:52	1	f.plashe	42	1079	5
101813	13:52	1	f.yooze	43	2257	6
101813	13:52	1	f.mooth	44	1805	5
101813	13:52	1	f.kleed	45	3971	4
101813	13:52	1	f.shrale	46	1539	4
101813	13:52	1	f.voshe	47	1274	4
101813	13:52	1	f.prate	48	2429	5
101813	13:52	1	f.frope	49	2114	5
101813	13:52	1	f.slogue	50	1595	4
101813	13:52	1	f.skove	51	4840	7
101813	13:52	1	f.thrake	52	6780	1
101813	13:52	1	f.thweeth	53	3245	3
101813	13:52	1	f.sweech	54	2521	3
101813	13:52	1	f.froob	55	4242	6
101813	13:52	1	f.kweem	56	6671	5
101813	13:52	1	f.gweel	57	1499	5
101813	13:52	1	f.thape	58	1965	1
101813	13:52	1	f.glooth	59	1731	2
101813	13:52	1	f.gwove	60	2300	3
101813	13:52	1	r.machine	1	3415	5
101813	13:52	1	r.penthouse	2	3604	9
101813	13:52	1	r.nourish	3	5634	7
101813	13:52	1	r.abduction	4	1704	1
101813	13:52	1	r.rainbow	5	4401	7
101813	13:52	1	r.ketchup	6	2024	5
101813	13:52	1	r.cemetery	7	3109	2
101813	13:52	1	r.family	8	2023	9
101813	13:52	1	r.option	9	1795	5
101813	13:52	1	r.killer	10	1921	1
101813	13:52	1	r.stagnant	11	2258	2
101813	13:52	1	r.merry	12	1774	9
101813	13:52	1	r.neurotic	13	2229	5
101813	13:52	1	r.fur	14	3025	5
101813	13:52	1	r.youth	15	1775	5
101813	13:52	1	r.agreement	16	2149	9
101813	13:52	1	r.habit	17	1717	5
101813	13:52	1	r.alien	18	1630	5
101813	13:52	1	r.kick	19	2146	5
101813	13:52	1	r.carefree	20	2946	9
101813	13:52	1	r.bus	21	2002	5
101813	13:52	1	r.enraged	22	1808	1
101813	13:52	1	r.ship	23	2293	5
101813	13:52	1	r.museum	24	3455	5
101813	13:52	1	r.sheltered	25	1883	5
101813	13:52	1	r.aggressive	26	3941	4
101813	13:52	1	r.knot	27	1703	5
101813	13:52	1	r.assault	28	2016	1
101813	13:52	1	r.lion	29	2373	5
101813	13:52	1	r.health	30	2436	6
101813	13:52	1	r.odd	31	2649	5
101813	13:52	1	r.adorable	32	1724	6
101813	13:52	1	r.bride	33	1629	6
101813	13:52	1	r.month	34	1217	5
101813	13:52	1	r.humor	35	2142	7
101813	13:52	1	r.honor	36	2518	6
101813	13:52	1	r.paralysis	37	2879	3
101813	13:52	1	r.bowl	38	1186	5
101813	13:52	1	r.locker	39	1440	5
101813	13:52	1	r.cute	40	1844	6
101813	13:52	1	r.afraid	41	2167	4
101813	13:52	1	r.useless	42	2982	4
101813	13:52	1	r.roach	43	3805	4
101813	13:52	1	r.cyclone	44	2339	5
101813	13:52	1	r.money	45	1652	9
101813	13:52	1	r.discouraged	46	1624	4
101813	13:52	1	r.noisy	47	1997	4
101813	13:52	1	r.desire	48	2554	5
101813	13:52	1	r.bottle	49	1114	5
101813	13:52	1	r.rancid	50	1491	1
101813	13:52	1	r.clouds	51	1325	5
101813	13:52	1	r.dentist	52	2046	4
101813	13:52	1	r.beauty	53	1353	6
101813	13:52	1	r.warmth	54	1961	9
101813	13:52	1	r.cabinet	55	1608	5
101813	13:52	1	r.candy	56	1461	9
101813	13:52	1	r.demon	57	1816	1
101813	13:52	1	r.kids	58	5364	4
101813	13:52	1	r.overwhelmed	59	1781	4
101813	13:52	1	r.lust	60	1891	4
101813	13:52	1	howtype	1	9700	4
101813	14:23	1	speed	1	3172	49
101813	14:23	1	error	2	1811	85
101813	14:23	1	whichhand	3	6571	right
101813	14:23	1	f.pleep	1	11332	5
101813	14:23	1	f.chool	2	4936	4
101813	14:23	1	f.gweeve	3	1273	4
101813	14:23	1	f.swool	4	2164	6
101813	14:23	1	f.shreer	5	2442	5
101813	14:23	1	f.gwote	6	3030	4
101813	14:23	1	f.zashe	7	3451	7
101813	14:23	1	f.thwofe	8	4511	4
101813	14:23	1	f.blathe	9	2321	5
101813	14:23	1	f.throom	10	1858	4
101813	14:23	1	f.thwache	11	1430	5
101813	14:23	1	f.thoove	12	2242	6
101813	14:23	1	f.blage	13	3366	5
101813	14:23	1	f.reesh	14	2774	5
101813	14:23	1	f.dwoosh	15	3573	6
101813	14:23	1	f.kwage	16	2108	5
101813	14:23	1	f.sheege	17	2582	5
101813	14:23	1	f.breer	18	5540	6
101813	14:23	1	f.preege	19	2046	6
101813	14:23	1	f.shreel	20	1329	5
101813	14:23	1	f.slade	21	4946	4
101813	14:23	1	f.pleesh	22	1858	5
101813	14:23	1	f.thwone	23	5126	5
101813	14:23	1	f.jofe	24	2167	6
101813	14:23	1	f.kweeg	25	2902	5
101813	14:23	1	f.prooge	26	952	5
101813	14:23	1	f.flooth	27	808	5
101813	14:23	1	f.gwaze	28	3924	5
101813	14:23	1	f.blool	29	1894	5
101813	14:23	1	f.peesh	30	4992	6
101813	14:23	1	f.dwole	31	983	5
101813	14:23	1	f.proop	32	4844	5
101813	14:23	1	f.yeech	33	1073	5
101813	14:23	1	f.kweep	34	2572	6
101813	14:23	1	f.twooth	35	4586	6
101813	14:23	1	f.floge	36	2946	5
101813	14:23	1	f.drate	37	2922	5
101813	14:23	1	f.troche	38	843	5
101813	14:23	1	f.sname	39	2774	6
101813	14:23	1	f.dweesh	40	3277	5
101813	14:23	1	f.sheeb	41	1208	5
101813	14:23	1	f.blogue	42	3422	6
101813	14:23	1	f.flague	43	1947	5
101813	14:23	1	f.frave	44	3995	5
101813	14:23	1	f.noosh	45	2010	4
101813	14:23	1	f.ploge	46	4886	5
101813	14:23	1	f.treege	47	1057	5
101813	14:23	1	f.gwashe	48	973	5
101813	14:23	1	f.yoove	49	1747	5
101813	14:23	1	f.freeve	50	1715	5
101813	14:23	1	f.zage	51	1476	5
101813	14:23	1	f.nathe	52	1119	5
101813	14:23	1	f.preep	53	2327	5
101813	14:23	1	f.threef	54	1272	5
101813	14:23	1	f.smafe	55	1426	5
101813	14:23	1	f.drague	56	1719	5
101813	14:23	1	f.smogue	57	848	5
101813	14:23	1	f.skase	58	2179	5
101813	14:23	1	f.kweem	59	1857	5
101813	14:23	1	f.slool	60	4213	5
101813	14:23	1	r.scissors	1	3613	3
101813	14:23	1	r.inspired	2	1922	9
101813	14:23	1	r.embarrassed	3	2227	1
101813	14:23	1	r.loyal	4	1895	9
101813	14:23	1	r.immature	5	2873	1
101813	14:23	1	r.riot	6	3500	2
101813	14:23	1	r.tomb	7	7158	5
101813	14:23	1	r.obey	8	1775	9
101813	14:23	1	r.tease	9	2462	3
101813	14:23	1	r.rifle	10	2097	5
101813	14:23	1	r.prairie	11	3667	6
101813	14:23	1	r.highway	12	1351	5
101813	14:23	1	r.option	13	1774	5
101813	14:23	1	r.spider	14	2901	1
101813	14:23	1	r.memory	15	1695	5
101813	14:23	1	r.treat	16	1640	5
101813	14:23	1	r.cow	17	2372	7
101813	14:23	1	r.rat	18	2436	4
101813	14:23	1	r.sentiment	19	1344	5
101813	14:23	1	r.shotgun	20	1688	4
101813	14:23	1	r.dignified	21	2377	8
101813	14:23	1	r.venom	22	2816	4
101813	14:23	1	r.lightbulb	23	1605	5
101813	14:23	1	r.shark	24	2827	3
101813	14:23	1	r.affection	25	3143	8
101813	14:23	1	r.dog	26	3951	8
101813	14:23	1	r.brother	27	2703	6
101813	14:23	1	r.prestige	28	2538	5
101813	14:23	1	r.slap	29	2418	2
101813	14:23	1	r.pity	30	1959	2
101813	14:23	1	r.education	31	2063	9
101813	14:23	1	r.quart	32	1417	5
101813	14:23	1	r.kids	33	3630	7
101813	14:23	1	r.brutal	34	2954	1
101813	14:23	1	r.outrage	35	8410	1
101813	14:23	1	r.letter	36	4586	5
101813	14:23	1	r.fearful	37	1705	1
101813	14:23	1	r.industry	38	1531	5
101813	14:23	1	r.wagon	39	1923	5
101813	14:23	1	r.famous	40	3739	5
101813	14:23	1	r.kerchief	41	1532	5
101813	14:23	1	r.roach	42	1908	1
101813	14:23	1	r.charm	43	2974	7
101813	14:23	1	r.ship	44	1158	5
101813	14:23	1	r.umbrella	45	2125	5
101813	14:23	1	r.muddy	46	926	5
101813	14:23	1	r.decorate	47	1567	5
101813	14:23	1	r.detest	48	845	5
101813	14:23	1	r.satisfied	49	1857	8
101813	14:23	1	r.stomach	50	1236	5
101813	14:23	1	r.man	51	1841	9
101813	14:23	1	r.heart	52	1245	9
101813	14:23	1	r.greet	53	1368	5
101813	14:23	1	r.scorpion	54	1767	1
101813	14:23	1	r.louse	55	1412	5
101813	14:23	1	r.indifferent	56	1434	5
101813	14:23	1	r.plant	57	1526	6
101813	14:23	1	r.lust	58	1863	6
101813	14:23	1	r.terrified	59	3554	1
101813	14:23	1	r.frog	60	2418	6
101813	14:23	1	howtype	1	8350	7
101813	15:19	1	speed	1	3142	43
101813	15:19	1	error	2	2489	76
101813	15:19	1	whichhand	3	7780	right
101813	15:19	1	f.smage	1	11182	3
101813	15:19	1	f.thrafe	2	8463	3
101813	15:19	1	f.thwase	3	5924	4
101813	15:19	1	f.kwoom	4	12230	6
101813	15:19	1	f.fofe	5	2982	6
101813	15:19	1	f.jashe	6	7437	7
101813	15:19	1	f.snooth	7	5387	7
101813	15:19	1	f.glache	8	3482	4
101813	15:19	1	f.dwaze	9	9293	4
101813	15:19	1	f.shrashe	10	5049	2
101813	15:19	1	f.woog	11	3069	3
101813	15:19	1	f.veege	12	3705	6
101813	15:19	1	f.kwague	13	11418	6
101813	15:19	1	f.gooth	14	4387	4
101813	15:19	1	f.shrate	15	3298	3
101813	15:19	1	f.feef	16	7260	7
101813	15:19	1	f.drathe	17	2577	2
101813	15:19	1	f.sweech	18	5078	8
101813	15:19	1	f.yose	19	5138	8
101813	15:19	1	f.shreech	20	3148	2
101813	15:19	1	f.skooge	21	3451	3
101813	15:19	1	f.thwane	22	2488	2
101813	15:19	1	f.gwome	23	2962	6
101813	15:19	1	f.thweet	24	4818	8
101813	15:19	1	f.drofe	25	3296	3
101813	15:19	1	f.vade	26	6561	7
101813	15:19	1	f.koob	27	7050	7
101813	15:19	1	f.leech	28	6511	6
101813	15:19	1	f.thole	29	5233	4
101813	15:19	1	f.swooze	30	3943	6
101813	15:19	1	f.teef	31	7335	6
101813	15:19	1	f.fape	32	8537	5
101813	15:19	1	f.preech	33	4011	7
101813	15:19	1	f.gweep	34	4681	4
101813	15:19	1	f.jeech	35	6044	4
101813	15:19	1	f.twose	36	2721	8
101813	15:19	1	f.gwoon	37	2307	7
101813	15:19	1	f.skeeb	38	3060	6
101813	15:19	1	f.yobe	39	1959	8
101813	15:19	1	f.smoosh	40	6174	8
101813	15:19	1	f.frobe	41	2550	6
101813	15:19	1	f.sneeg	42	3021	2
101813	15:19	1	f.ploof	43	8699	6
101813	15:19	1	f.yone	44	7071	4
101813	15:19	1	f.kweem	45	3732	6
101813	15:19	1	f.goche	46	16867	4
101813	15:19	1	f.zeeb	47	5620	6
101813	15:19	1	f.voom	48	6139	3
101813	15:19	1	f.yooze	49	5700	4
101813	15:19	1	f.drore	50	2863	2
101813	15:19	1	f.glool	51	4418	3
101813	15:19	1	f.tave	52	2799	4
101813	15:19	1	f.gwoge	53	7694	3
101813	15:19	1	f.chame	54	3561	3
101813	15:19	1	f.snabe	55	2240	4
101813	15:19	1	f.yame	56	11757	5
101813	15:19	1	f.threeg	57	3559	4
101813	15:19	1	f.flashe	58	8879	5
101813	15:19	1	f.vape	59	3851	6
101813	15:19	1	f.thage	60	2424	3
101813	15:19	1	r.saint	1	6063	5
101813	15:19	1	r.failure	2	8115	6
101813	15:19	1	r.virtue	3	3598	4
101813	15:19	1	r.travel	4	4756	6
101813	15:19	1	r.power	5	4893	5
101813	15:19	1	r.ulcer	6	3583	2
101813	15:19	1	r.shadow	7	3574	8
101813	15:19	1	r.murderer	8	6885	7
101813	15:19	1	r.bath	9	4113	6
101813	15:19	1	r.hurt	10	5178	4
101813	15:19	1	r.clumsy	11	2602	6
101813	15:19	1	r.depression	12	3192	7
101813	15:19	1	r.despise	13	6894	8
101813	15:19	1	r.part	14	4226	6
101813	15:19	1	r.surgery	15	5158	4
101813	15:19	1	r.justice	16	3015	4
101813	15:19	1	r.fearful	17	7764	5
101813	15:19	1	r.table	18	3141	6
101813	15:19	1	r.nude	19	3621	2
101813	15:19	1	r.water	20	5091	3
101813	15:19	1	r.profit	21	3406	4
101813	15:19	1	r.sexy	22	6859	6
101813	15:19	1	r.foot	23	3473	8
101813	15:19	1	r.holiday	24	8108	4
101813	15:19	1	r.stagnant	25	3487	2
101813	15:19	1	r.rock	26	3426	3
101813	15:19	1	r.heart	27	3319	3
101813	15:19	1	r.vigorous	28	3304	2
101813	15:19	1	r.robber	29	4362	6
101813	15:19	1	r.thermometer	30	6794	2
101813	15:19	1	r.masturbate	31	4361	4
101813	15:19	1	r.jewel	32	3257	8
101813	15:19	1	r.tumor	33	2597	8
101813	15:19	1	r.name	34	3211	7
101813	15:19	1	r.avalanche	35	4359	2
101813	15:19	1	r.handsome	36	5080	4
101813	15:19	1	r.impressed	37	4363	3
101813	15:19	1	r.family	38	3139	6
101813	15:19	1	r.rattle	39	3026	2
101813	15:19	1	r.wicked	40	4232	4
101813	15:19	1	r.graduate	41	7789	3
101813	15:19	1	r.dirty	42	15597	4
101813	15:19	1	r.bed	43	3878	7
101813	15:19	1	r.corrupt	44	4594	8
101813	15:19	1	r.blase	45	3768	8
101813	15:19	1	r.coward	46	3952	4
101813	15:19	1	r.wise	47	4103	4
101813	15:19	1	r.ocean	48	2315	8
101813	15:19	1	r.sickness	49	3363	8
101813	15:19	1	r.boxer	50	3012	2
101813	15:19	1	r.confused	51	4824	6
101813	15:19	1	r.joke	52	4518	1
101813	15:19	1	r.engaged	53	3848	2
101813	15:19	1	r.execution	54	12772	5
101813	15:19	1	r.garden	55	3406	4
101813	15:19	1	r.overwhelmed	56	5012	7
101813	15:19	1	r.lamp	57	2386	2
101813	15:19	1	r.hay	58	2537	2
101813	15:19	1	r.friendly	59	3345	3
101813	15:19	1	r.agility	60	4945	4
101813	15:19	1	howtype	1	21784	2
102113	09:54	1	speed	1	5281	75
102113	09:54	1	error	2	4336	72
102113	09:54	1	whichhand	3	7961	right
102113	09:54	1	r.virtue	1	9569	6
102113	09:54	1	r.daylight	2	11344	6
102113	09:54	1	r.fame	3	20427	5
102113	09:54	1	r.slaughter	4	4902	2
102113	09:54	1	r.vision	5	2873	7
102113	09:54	1	r.profit	6	2988	8
102113	09:54	1	r.dreadful	7	4131	3
102113	09:54	1	r.pasta	8	3812	6
102113	09:54	1	r.father	9	4209	6
102113	09:54	1	r.tomb	10	2511	3
102113	09:54	1	r.offend	11	4120	4
102113	09:54	1	r.mother	12	2490	7
102113	09:54	1	r.field	13	3405	8
102113	09:54	1	r.deceit	14	2386	2
102113	09:54	1	r.dead	15	2197	2
102113	09:54	1	r.fearful	16	2363	3
102113	09:54	1	r.adorable	17	2178	6
102113	09:54	1	r.noisy	18	1984	4
102113	09:54	1	r.scornful	19	3295	4
102113	09:54	1	r.bus	20	1929	5
102113	09:54	1	r.aloof	21	2625	4
102113	09:54	1	r.spouse	22	2326	5
102113	09:54	1	r.innocent	23	1591	6
102113	09:54	1	r.impressed	24	1293	6
102113	09:54	1	r.panic	25	4846	4
102113	09:54	1	r.board	26	3801	3
102113	09:54	1	r.regretful	27	2481	3
102113	09:54	1	r.patient	28	2443	5
102113	09:54	1	r.maggot	29	2447	3
102113	09:54	1	r.graduate	30	2547	6
102113	09:54	1	r.win	31	2211	5
102113	09:54	1	r.love	32	2032	7
102113	09:54	1	r.coast	33	2796	5
102113	09:54	1	r.wagon	34	3338	5
102113	09:54	1	r.stupid	35	1178	4
102113	09:54	1	r.radio	36	1897	5
102113	09:54	1	r.crime	37	1811	3
102113	09:54	1	r.tender	38	2648	8
102113	09:54	1	r.sissy	39	4412	5
102113	09:54	1	r.tower	40	2721	3
102113	09:54	1	r.luscious	41	6458	8
102113	09:54	1	r.pressure	42	3879	4
102113	09:54	1	r.coin	43	2856	5
102113	09:54	1	r.name	44	1324	5
102113	09:54	1	r.pet	45	1548	5
102113	09:54	1	r.termite	46	1108	4
102113	09:54	1	r.evil	47	2909	4
102113	09:54	1	r.privacy	48	2023	7
102113	09:54	1	r.outstanding	49	2252	6
102113	09:54	1	r.honest	50	3319	7
102113	09:54	1	r.nonchalant	51	5888	6
102113	09:54	1	r.pie	52	1772	6
102113	09:54	1	r.beggar	53	1787	3
102113	09:54	1	r.kiss	54	2105	7
102113	09:54	1	r.lonely	55	2331	4
102113	09:54	1	r.yellow	56	1923	3
102113	09:54	1	r.tidy	57	3972	6
102113	09:54	1	r.dump	58	1523	4
102113	09:54	1	r.alive	59	2346	8
102113	09:54	1	r.outdoors	60	2250	8
102113	09:54	1	f.yooge	1	11420	4
102113	09:54	1	f.preech	2	4324	4
102113	09:54	1	f.prook	3	3293	5
102113	09:54	1	f.goche	4	4453	4
102113	09:54	1	f.slashe	5	2890	3
102113	09:54	1	f.shroop	6	3012	6
102113	09:54	1	f.flape	7	4705	5
102113	09:54	1	f.shreeze	8	2499	2
102113	09:54	1	f.kleech	9	2647	4
102113	09:54	1	f.gweeb	10	5305	6
102113	09:54	1	f.nooth	11	2099	5
102113	09:54	1	f.slooch	12	3133	5
102113	09:54	1	f.yave	13	3518	4
102113	09:54	1	f.klool	14	2567	6
102113	09:54	1	f.shroom	15	3708	7
102113	09:54	1	f.pleer	16	4663	5
102113	09:54	1	f.gwase	17	2089	6
102113	09:54	1	f.breer	18	2124	6
102113	09:54	1	f.smape	19	2790	5
102113	09:54	1	f.shrague	20	2585	4
102113	09:54	1	f.jabe	21	1930	5
102113	09:54	1	f.threef	22	1466	5
102113	09:54	1	f.proosh	23	2541	4
102113	09:54	1	f.kobe	24	4285	6
102113	09:54	1	f.yoosh	25	1744	4
102113	09:54	1	f.jooth	26	4376	6
102113	09:54	1	f.twoom	27	2143	6
102113	09:54	1	f.peeg	28	2070	4
102113	09:54	1	f.veeb	29	1834	7
102113	09:54	1	f.klafe	30	2070	6
102113	09:54	1	f.toog	31	2393	3
102113	09:54	1	f.zague	32	3359	2
102113	09:54	1	f.neege	33	1533	4
102113	09:54	1	f.treeb	34	1750	6
102113	09:54	1	f.flave	35	1333	6
102113	09:54	1	f.dache	36	1086	4
102113	09:54	1	f.floof	37	1552	6
102113	09:54	1	f.loche	38	2088	5
102113	09:54	1	f.kreeth	39	1242	4
102113	09:54	1	f.trome	40	1245	4
102113	09:54	1	f.threeg	41	1161	4
102113	09:54	1	f.smoove	42	1551	6
102113	09:54	1	f.sheech	43	1551	3
102113	09:54	1	f.glogue	44	1094	4
102113	09:54	1	f.glofe	45	1680	4
102113	09:54	1	f.zeech	46	1594	3
102113	09:54	1	f.skage	47	2032	5
102113	09:54	1	f.nashe	48	971	4
102113	09:54	1	f.yome	49	1986	4
102113	09:54	1	f.thwothe	50	2265	2
102113	09:54	1	f.skoom	51	1595	6
102113	09:54	1	f.shoge	52	1201	4
102113	09:54	1	f.gweed	53	2470	3
102113	09:54	1	f.shrafe	54	2322	4
102113	09:54	1	f.treege	55	2003	3
102113	09:54	1	f.dwoove	56	2617	5
102113	09:54	1	f.joom	57	2070	4
102113	09:54	1	f.pleeth	58	1625	3
102113	09:54	1	f.klood	59	1414	6
102113	09:54	1	f.drare	60	938	6
102113	09:54	1	howtype	1	7593	7
102113	11:06	1	speed	1	3388	28
102113	11:06	1	error	2	1546	67
102113	11:06	1	whichhand	3	5784	right
102113	11:06	1	r.hairpin	1	5566	2
102113	11:06	1	r.shy	2	3766	5
102113	11:06	1	r.yacht	3	4158	6
102113	11:06	1	r.displeased	4	2510	2
102113	11:06	1	r.spirit	5	5263	8
102113	11:06	1	r.city	6	3244	5
102113	11:06	1	r.arm	7	2640	5
102113	11:06	1	r.loyal	8	2588	9
102113	11:06	1	r.hurt	9	2811	1
102113	11:06	1	r.honor	10	2064	8
102113	11:06	1	r.clumsy	11	2635	3
102113	11:06	1	r.sphere	12	2839	5
102113	11:06	1	r.scream	13	2980	2
102113	11:06	1	r.kick	14	2467	2
102113	11:06	1	r.unfaithful	15	2046	1
102113	11:06	1	r.health	16	8137	6
102113	11:06	1	r.heart	17	4123	5
102113	11:06	1	r.destruction	18	2077	2
102113	11:06	1	r.mountain	19	4063	6
102113	11:06	1	r.cash	20	2107	9
102113	11:06	1	r.fire	21	3236	4
102113	11:06	1	r.confident	22	3041	7
102113	11:06	1	r.present	23	2110	8
102113	11:06	1	r.tomb	24	2502	3
102113	11:06	1	r.advantage	25	2161	6
102113	11:06	1	r.horror	26	2128	1
102113	11:06	1	r.adorable	27	2176	8
102113	11:06	1	r.cake	28	1670	9
102113	11:06	1	r.errand	29	5409	2
102113	11:06	1	r.pinch	30	2279	3
102113	11:06	1	r.kindness	31	1873	7
102113	11:06	1	r.quarrel	32	2645	4
102113	11:06	1	r.brother	33	3656	7
102113	11:06	1	r.hooker	34	3869	2
102113	11:06	1	r.absurd	35	2296	3
102113	11:06	1	r.life	36	2162	4
102113	11:06	1	r.dustpan	37	2801	2
102113	11:06	1	r.optimism	38	2327	5
102113	11:06	1	r.pancakes	39	2439	9
102113	11:06	1	r.reserved	40	2252	6
102113	11:06	1	r.horse	41	1695	9
102113	11:06	1	r.bless	42	2801	7
102113	11:06	1	r.useful	43	4191	6
102113	11:06	1	r.naked	44	2190	9
102113	11:06	1	r.pungent	45	1741	1
102113	11:06	1	r.vacation	46	1980	5
102113	11:06	1	r.teacher	47	1627	7
102113	11:06	1	r.bored	48	2199	5
102113	11:06	1	r.scornful	49	1757	2
102113	11:06	1	r.ship	50	2228	4
102113	11:06	1	r.house	51	2312	6
102113	11:06	1	r.key	52	3090	5
102113	11:06	1	r.orgasm	53	2676	7
102113	11:06	1	r.thankful	54	2031	8
102113	11:06	1	r.scared	55	1699	1
102113	11:06	1	r.adventure	56	2125	8
102113	11:06	1	r.morgue	57	2054	2
102113	11:06	1	r.umbrella	58	2577	7
102113	11:06	1	r.criminal	59	4568	4
102113	11:06	1	r.sun	60	1672	9
102113	11:06	1	f.yeese	1	4697	4
102113	11:06	1	f.yage	2	3539	5
102113	11:06	1	f.skoob	3	2125	7
102113	11:06	1	f.twafe	4	4158	4
102113	11:06	1	f.jathe	5	7006	4
102113	11:06	1	f.teef	6	2885	5
102113	11:06	1	f.swave	7	2608	6
102113	11:06	1	f.thave	8	2374	3
102113	11:06	1	f.gooth	9	1853	4
102113	11:06	1	f.snogue	10	1824	1
102113	11:06	1	f.dwook	11	2149	3
102113	11:06	1	f.thoove	12	4029	4
102113	11:06	1	f.cheeth	13	2706	3
102113	11:06	1	f.thwoop	14	2588	8
102113	11:06	1	f.kloosh	15	5274	6
102113	11:06	1	f.shreeze	16	2286	6
102113	11:06	1	f.sneese	17	2609	5
102113	11:06	1	f.shooge	18	1870	4
102113	11:06	1	f.drogue	19	1809	1
102113	11:06	1	f.sheese	20	1422	2
102113	11:06	1	f.lale	21	2923	3
102113	11:06	1	f.flafe	22	1420	7
102113	11:06	1	f.smoge	23	2585	5
102113	11:06	1	f.noog	24	2672	7
102113	11:06	1	f.twape	25	2051	5
102113	11:06	1	f.jome	26	1831	4
102113	11:06	1	f.dwoot	27	2515	7
102113	11:06	1	f.sleeg	28	1796	2
102113	11:06	1	f.troog	29	1962	4
102113	11:06	1	f.yoof	30	2921	6
102113	11:06	1	f.shrathe	31	1882	2
102113	11:06	1	f.frofe	32	4540	4
102113	11:06	1	f.stooth	33	1813	3
102113	11:06	1	f.lool	34	1922	8
102113	11:06	1	f.lole	35	1907	7
102113	11:06	1	f.gothe	36	2181	3
102113	11:06	1	f.poshe	37	2035	8
102113	11:06	1	f.wogue	38	1488	1
102113	11:06	1	f.twole	39	2370	5
102113	11:06	1	f.threel	40	6273	4
102113	11:06	1	f.treech	41	2197	2
102113	11:06	1	f.thrabe	42	1715	4
102113	11:06	1	f.sweech	43	2868	3
102113	11:06	1	f.blabe	44	1863	5
102113	11:06	1	f.sheeg	45	2058	1
102113	11:06	1	f.gwate	46	2477	4
102113	11:06	1	f.kobe	47	4383	6
102113	11:06	1	f.snose	48	1710	5
102113	11:06	1	f.pleep	49	2095	6
102113	11:06	1	f.sache	50	2185	5
102113	11:06	1	f.blale	51	2023	7
102113	11:06	1	f.mooth	52	1652	6
102113	11:06	1	f.twope	53	2064	8
102113	11:06	1	f.shreeve	54	1715	5
102113	11:06	1	f.snage	55	2115	4
102113	11:06	1	f.choog	56	3157	5
102113	11:06	1	f.lache	57	1965	6
102113	11:06	1	f.bleel	58	2564	5
102113	11:06	1	f.thage	59	2220	4
102113	11:06	1	f.drooze	60	1951	7
102113	11:06	1	howtype	1	13117	4
102113	11:24	1	speed	1	4154	52
102113	11:24	1	error	2	1829	96
102113	11:24	1	whichhand	3	10833	Right
102113	11:24	1	r.elegant	1	6206	9
