date	time	subject	trialcode	trialnum	latency	response
092513	13:22	1	speed	1	4313	43
092513	13:22	1	error	2	2581	93
092513	13:22	1	whichhand	3	7979	right
092513	13:22	1	f.skooge	1	9181	4
092513	13:22	1	f.yage	2	6229	5
092513	13:22	1	f.proshe	3	4866	6
092513	13:22	1	f.shreege	4	6023	6
092513	13:22	1	f.swague	5	3557	7
092513	13:22	1	f.dwoot	6	4213	4
092513	13:22	1	f.yeem	7	1811	4
092513	13:22	1	f.thrare	8	2024	5
092513	13:22	1	f.smeege	9	2885	8
092513	13:22	1	f.loshe	10	1952	6
092513	13:22	1	f.sloob	11	2895	3
092513	13:22	1	f.thwage	12	2217	4
092513	13:22	1	f.nague	13	2102	4
092513	13:22	1	f.gwoor	14	2968	5
092513	13:22	1	f.poshe	15	2335	7
092513	13:22	1	f.shreeve	16	2519	6
092513	13:22	1	f.dogue	17	3400	6
092513	13:22	1	f.shrashe	18	1975	5
092513	13:22	1	f.dwogue	19	2078	5
092513	13:22	1	f.vave	20	3160	8
092513	13:22	1	f.groche	21	1608	4
092513	13:22	1	f.snoob	22	1773	4
092513	13:22	1	f.glase	23	2476	7
092513	13:22	1	f.plafe	24	1479	5
092513	13:22	1	f.glathe	25	2504	4
092513	13:22	1	f.joshe	26	2442	5
092513	13:22	1	f.krashe	27	4406	4
092513	13:22	1	f.thove	28	1637	6
092513	13:22	1	f.zooge	29	3377	7
092513	13:22	1	f.trake	30	2607	5
092513	13:22	1	f.dabe	31	4277	5
092513	13:22	1	f.cheel	32	1761	7
092513	13:22	1	f.smothe	33	1751	8
092513	13:22	1	f.tave	34	1615	7
092513	13:22	1	f.shrote	35	1619	6
092513	13:22	1	f.gwoose	36	2120	5
092513	13:22	1	f.dweese	37	1650	4
092513	13:22	1	f.smoog	38	1957	3
092513	13:22	1	f.swole	39	1341	5
092513	13:22	1	f.glogue	40	1685	4
092513	13:22	1	f.dreeze	41	2878	6
092513	13:22	1	f.twoop	42	1730	5
092513	13:22	1	f.mofe	43	1842	4
092513	13:22	1	f.skague	44	2830	5
092513	13:22	1	f.gloog	45	2058	6
092513	13:22	1	f.throol	46	1646	6
092513	13:22	1	f.gwore	47	2506	3
092513	13:22	1	f.spathe	48	3492	6
092513	13:22	1	f.krore	49	1655	5
092513	13:22	1	f.sneem	50	3554	6
092513	13:22	1	f.yoshe	51	2154	7
092513	13:22	1	f.theeg	52	1753	6
092513	13:22	1	f.skathe	53	1881	7
092513	13:22	1	f.zeed	54	1643	8
092513	13:22	1	f.bloshe	55	1887	5
092513	13:22	1	f.shreeze	56	1730	6
092513	13:22	1	f.sheeb	57	1530	4
092513	13:22	1	f.yoche	58	1570	5
092513	13:22	1	f.kloob	59	2097	4
092513	13:22	1	f.thoof	60	1923	6
092513	13:22	1	r.blubber	1	2852	7
092513	13:22	1	r.sun	2	2408	7
092513	13:22	1	r.pet	3	1925	9
092513	13:22	1	r.sour	4	2182	7
092513	13:22	1	r.penthouse	5	2853	5
092513	13:22	1	r.betray	6	1817	2
092513	13:22	1	r.respectful	7	1685	8
092513	13:22	1	r.subdued	8	1848	5
092513	13:22	1	r.graduate	9	1907	9
092513	13:22	1	r.finger	10	1613	5
092513	13:22	1	r.injury	11	1466	1
092513	13:22	1	r.indifferent	12	1797	5
092513	13:22	1	r.magical	13	1682	7
092513	13:22	1	r.achievement	14	2061	9
092513	13:22	1	r.truth	15	2079	9
092513	13:22	1	r.butter	16	1794	5
092513	13:22	1	r.poetry	17	1912	4
092513	13:22	1	r.cockroach	18	1760	3
092513	13:22	1	r.paralysis	19	2023	5
092513	13:22	1	r.kids	20	1772	2
092513	13:22	1	r.pretty	21	1707	7
092513	13:22	1	r.breast	22	2829	6
092513	13:22	1	r.jewel	23	1713	7
092513	13:22	1	r.alone	24	1674	1
092513	13:22	1	r.yacht	25	1693	8
092513	13:22	1	r.delayed	26	1967	3
092513	13:22	1	r.horror	27	1350	1
092513	13:22	1	r.dreadful	28	1725	3
092513	13:22	1	r.grenade	29	2470	5
092513	13:22	1	r.divorce	30	2936	2
092513	13:22	1	r.merry	31	2513	6
092513	13:22	1	r.teacher	32	1602	5
092513	13:22	1	r.pervert	33	1712	1
092513	13:22	1	r.millionaire	34	1417	8
092513	13:22	1	r.writer	35	1941	4
092513	13:22	1	r.robber	36	1542	3
092513	13:22	1	r.humane	37	2670	6
092513	13:22	1	r.masterful	38	1954	5
092513	13:22	1	r.thief	39	1273	3
092513	13:22	1	r.rainbow	40	1268	7
092513	13:22	1	r.gold	41	1343	7
092513	13:22	1	r.headlight	42	1406	5
092513	13:22	1	r.street	43	1163	5
092513	13:22	1	r.nipple	44	2450	5
092513	13:22	1	r.dreary	45	1166	4
092513	13:22	1	r.nervous	46	2061	3
092513	13:22	1	r.intruder	47	1407	2
092513	13:22	1	r.mangle	48	1774	3
092513	13:22	1	r.needle	49	1620	5
092513	13:22	1	r.gift	50	1728	7
092513	13:22	1	r.icebox	51	1608	5
092513	13:22	1	r.busybody	52	2110	5
092513	13:22	1	r.alcoholic	53	2039	2
092513	13:22	1	r.key	54	1308	5
092513	13:22	1	r.yellow	55	2005	6
092513	13:22	1	r.rape	56	1546	1
092513	13:22	1	r.jolly	57	1330	5
092513	13:22	1	r.ecstasy	58	2522	2
092513	13:22	1	r.restaurant	59	1788	7
092513	13:22	1	r.addict	60	2098	3
092513	13:22	1	howtype	1	12602	6
092513	13:33	1	speed	1	3562	35
092513	13:33	1	error	2	2761	91
092513	13:33	1	whichhand	3	10457	right
092513	13:33	1	r.reunion	1	8661	7
092513	13:33	1	r.nun	2	4209	8
092513	13:33	1	r.dove	3	3679	9
092513	13:33	1	r.idol	4	3249	7
092513	13:33	1	r.aloof	5	2518	3
092513	13:33	1	r.priest	6	3455	5
092513	13:33	1	r.loser	7	3522	1
092513	13:33	1	r.respectful	8	1517	9
092513	13:33	1	r.insolent	9	2150	1
092513	13:33	1	r.alcoholic	10	1702	1
092513	13:33	1	r.contempt	11	2735	5
092513	13:33	1	r.lawsuit	12	1840	1
092513	13:33	1	r.suicide	13	1412	1
092513	13:33	1	r.glacier	14	2688	3
092513	13:33	1	r.ennui	15	1731	2
092513	13:33	1	r.comedy	16	2308	7
092513	13:33	1	r.drown	17	1270	1
092513	13:33	1	r.field	18	2824	3
092513	13:33	1	r.putrid	19	1622	1
092513	13:33	1	r.fantasy	20	1818	6
092513	13:33	1	r.merry	21	1615	9
092513	13:33	1	r.butter	22	1276	5
092513	13:33	1	r.save	23	1343	9
092513	13:33	1	r.kindness	24	1077	9
092513	13:33	1	r.penalty	25	1384	1
092513	13:33	1	r.fire	26	1278	1
092513	13:33	1	r.lamb	27	1760	6
092513	13:33	1	r.incentive	28	2543	1
092513	13:33	1	r.utensil	29	1855	2
092513	13:33	1	r.funeral	30	1883	1
092513	13:33	1	r.anger	31	1157	1
092513	13:33	1	r.bake	32	2132	5
092513	13:33	1	r.church	33	2317	6
092513	13:33	1	r.astronaut	34	2486	3
092513	13:33	1	r.family	35	2576	9
092513	13:33	1	r.politeness	36	1742	9
092513	13:33	1	r.icebox	37	2374	1
092513	13:33	1	r.hotel	38	2029	3
092513	13:33	1	r.reserved	39	2553	2
092513	13:33	1	r.hostage	40	2594	1
092513	13:33	1	r.admired	41	2271	8
092513	13:33	1	r.journal	42	2962	5
092513	13:33	1	r.swimmer	43	5010	2
092513	13:33	1	r.pain	44	1232	1
092513	13:33	1	r.pollute	45	2436	1
092513	13:33	1	r.radio	46	3144	6
092513	13:33	1	r.lump	47	1360	1
092513	13:33	1	r.trust	48	1663	9
092513	13:33	1	r.despise	49	3930	1
092513	13:33	1	r.improve	50	2019	9
092513	13:33	1	r.neurotic	51	1144	1
092513	13:33	1	r.bastard	52	1151	1
092513	13:33	1	r.stove	53	2853	3
092513	13:33	1	r.spanking	54	2786	1
092513	13:33	1	r.lust	55	1953	1
092513	13:33	1	r.errand	56	1585	1
092513	13:33	1	r.fish	57	1367	2
092513	13:33	1	r.doctor	58	1517	1
092513	13:33	1	r.rifle	59	1415	1
092513	13:33	1	r.chance	60	1482	9
092513	13:33	1	f.twogue	1	2522	1
092513	13:33	1	f.teeve	2	2099	3
092513	13:33	1	f.slale	3	1749	1
092513	13:33	1	f.shroosh	4	2004	1
092513	13:33	1	f.dwafe	5	2746	1
092513	13:33	1	f.throve	6	2218	3
092513	13:33	1	f.dwook	7	1663	9
092513	13:33	1	f.greer	8	1330	9
092513	13:33	1	f.bloog	9	2001	5
092513	13:33	1	f.spobe	10	1399	2
092513	13:33	1	f.threer	11	2253	7
092513	13:33	1	f.zoshe	12	2537	8
092513	13:33	1	f.plache	13	1897	5
092513	13:33	1	f.prooch	14	1971	5
092513	13:33	1	f.theen	15	3058	6
092513	13:33	1	f.slashe	16	1382	1
092513	13:33	1	f.speeve	17	1628	1
092513	13:33	1	f.swoze	18	1264	2
092513	13:33	1	f.dwoke	19	2411	3
092513	13:33	1	f.sweeth	20	736	2
092513	13:33	1	f.kwoche	21	1960	9
092513	13:33	1	f.preesh	22	2583	8
092513	13:33	1	f.throod	23	2757	9
092513	13:33	1	f.sleech	24	2502	1
092513	13:33	1	f.thwofe	25	1183	1
092513	13:33	1	f.snoove	26	2084	5
092513	13:33	1	f.dwooth	27	879	5
092513	13:33	1	f.pathe	28	1322	6
092513	13:33	1	f.gwote	29	2170	1
092513	13:33	1	f.seeb	30	2170	6
092513	13:33	1	f.thoosh	31	4144	1
092513	13:33	1	f.dobe	32	3241	6
092513	13:33	1	f.thwope	33	1541	2
092513	13:33	1	f.flobe	34	2757	4
092513	13:33	1	f.dwade	35	3245	5
092513	13:33	1	f.yooch	36	1465	1
092513	13:33	1	f.shreel	37	1572	1
092513	13:33	1	f.twale	38	1922	6
092513	13:33	1	f.smoob	39	1284	2
092513	13:33	1	f.plare	40	3446	4
092513	13:33	1	f.dweeze	41	1498	1
092513	13:33	1	f.fleep	42	1268	1
092513	13:33	1	f.shrage	43	1815	2
092513	13:33	1	f.trook	44	2124	7
092513	13:33	1	f.thone	45	1381	8
092513	13:33	1	f.smobe	46	2082	4
092513	13:33	1	f.deef	47	1437	1
092513	13:33	1	f.gwabe	48	1185	2
092513	13:33	1	f.vake	49	2495	3
092513	13:33	1	f.dweek	50	1248	2
092513	13:33	1	f.shoose	51	1244	2
092513	13:33	1	f.dwoot	52	2112	6
092513	13:33	1	f.glook	53	1680	8
092513	13:33	1	f.zabe	54	2755	2
092513	13:33	1	f.ploshe	55	1443	3
092513	13:33	1	f.pleer	56	2846	6
092513	13:33	1	f.thwone	57	1842	2
092513	13:33	1	f.glake	58	1791	1
092513	13:33	1	f.loshe	59	1492	4
092513	13:33	1	f.lache	60	2286	2
092513	13:33	1	howtype	1	10535	4
092513	13:50	1	speed	1	3665	57
092513	13:50	1	error	2	3759	92
092513	13:50	1	whichhand	3	7760	right
092513	13:50	1	f.blage	1	10665	4
092513	13:50	1	f.floche	2	5032	4
092513	13:50	1	f.beeg	3	2573	3
092513	13:50	1	f.jobe	4	3660	5
092513	13:50	1	f.dwooch	5	2328	2
092513	13:50	1	f.gweesh	6	2600	1
092513	13:50	1	f.spoot	7	3246	5
092513	13:50	1	f.preege	8	1354	4
092513	13:50	1	f.thweeth	9	1786	5
092513	13:50	1	f.neeth	10	2256	6
092513	13:50	1	f.swoog	11	1596	4
092513	13:50	1	f.zoge	12	1713	5
092513	13:50	1	f.yoof	13	1938	3
092513	13:50	1	f.yabe	14	2194	6
092513	13:50	1	f.dwome	15	2671	4
092513	13:50	1	f.woche	16	2395	3
092513	13:50	1	f.smane	17	1649	5
092513	13:50	1	f.dwoot	18	2708	4
092513	13:50	1	f.sloof	19	1822	3
092513	13:50	1	f.kweege	20	3875	5
092513	13:50	1	f.drague	21	1950	4
092513	13:50	1	f.shreem	22	1630	6
092513	13:50	1	f.dwone	23	1874	4
092513	13:50	1	f.gwabe	24	2085	5
092513	13:50	1	f.keeb	25	2255	6
092513	13:50	1	f.skeek	26	1883	3
092513	13:50	1	f.tweef	27	1477	1
092513	13:50	1	f.smome	28	2119	5
092513	13:50	1	f.skame	29	2177	4
092513	13:50	1	f.drore	30	1567	5
092513	13:50	1	f.plothe	31	4678	5
092513	13:50	1	f.ploor	32	1617	6
092513	13:50	1	f.dooth	33	2797	3
092513	13:50	1	f.skeeth	34	1620	3
092513	13:50	1	f.skeese	35	2929	4
092513	13:50	1	f.shrobe	36	1753	5
092513	13:50	1	f.shroosh	37	1425	3
092513	13:50	1	f.thwode	38	1661	4
092513	13:50	1	f.deeth	39	4488	2
092513	13:50	1	f.sleeb	40	2012	3
092513	13:50	1	f.thode	41	2024	2
092513	13:50	1	f.bleef	42	1653	4
092513	13:50	1	f.shraze	43	1657	6
092513	13:50	1	f.kreesh	44	2124	3
092513	13:50	1	f.feef	45	1550	4
092513	13:50	1	f.shreeg	46	1325	5
092513	13:50	1	f.boosh	47	1590	5
092513	13:50	1	f.skafe	48	4284	5
092513	13:50	1	f.pleep	49	1583	3
092513	13:50	1	f.sweeg	50	4909	5
092513	13:50	1	f.dwothe	51	1535	3
092513	13:50	1	f.slache	52	2191	6
092513	13:50	1	f.tashe	53	1710	6
092513	13:50	1	f.treeb	54	1631	3
092513	13:50	1	f.loosh	55	1147	4
092513	13:50	1	f.neef	56	1890	2
092513	13:50	1	f.gleese	57	1556	3
092513	13:50	1	f.glothe	58	2324	3
092513	13:50	1	f.gwool	59	2325	1
092513	13:50	1	f.throche	60	2358	5
092513	13:50	1	r.nature	1	3183	7
092513	13:50	1	r.funeral	2	2118	1
092513	13:50	1	r.alley	3	1838	3
092513	13:50	1	r.miracle	4	1755	9
092513	13:50	1	r.cheer	5	1858	9
092513	13:50	1	r.air	6	2526	9
092513	13:50	1	r.bake	7	1975	9
092513	13:50	1	r.church	8	1246	9
092513	13:50	1	r.elevator	9	1929	5
092513	13:50	1	r.addicted	10	2329	5
092513	13:50	1	r.innocent	11	3058	4
092513	13:50	1	r.corrupt	12	1950	1
092513	13:50	1	r.deserter	13	2125	1
092513	13:50	1	r.awed	14	1909	7
092513	13:50	1	r.peace	15	3687	9
092513	13:50	1	r.bereavement	16	3202	5
092513	13:50	1	r.grass	17	3808	8
092513	13:50	1	r.pancakes	18	1478	9
092513	13:50	1	r.enraged	19	1801	1
092513	13:50	1	r.rattle	20	1542	5
092513	13:50	1	r.power	21	1662	7
092513	13:50	1	r.radio	22	1665	9
092513	13:50	1	r.hay	23	1964	3
092513	13:50	1	r.shy	24	3603	3
092513	13:50	1	r.punishment	25	1649	1
092513	13:50	1	r.moody	26	2460	1
092513	13:50	1	r.nuisance	27	2608	1
092513	13:50	1	r.swimmer	28	2462	8
092513	13:50	1	r.execution	29	2233	1
092513	13:50	1	r.fish	30	1925	7
092513	13:50	1	r.seat	31	1294	5
092513	13:50	1	r.truth	32	1784	5
092513	13:50	1	r.triumph	33	1622	9
092513	13:50	1	r.brother	34	2419	8
092513	13:50	1	r.deformed	35	1696	1
092513	13:50	1	r.table	36	2345	5
092513	13:50	1	r.bouquet	37	1858	9
092513	13:50	1	r.erotic	38	1605	7
092513	13:50	1	r.adventure	39	1570	9
092513	13:50	1	r.orgasm	40	2025	9
092513	13:50	1	r.bandage	41	1694	3
092513	13:50	1	r.clouds	42	1687	8
092513	13:50	1	r.fireworks	43	1858	9
092513	13:50	1	r.crushed	44	2165	5
092513	13:50	1	r.white	45	1188	5
092513	13:50	1	r.bless	46	1562	9
092513	13:50	1	r.storm	47	2337	8
092513	13:50	1	r.lawsuit	48	1682	2
092513	13:50	1	r.narcotic	49	1876	1
092513	13:50	1	r.bland	50	1502	3
092513	13:50	1	r.month	51	1912	5
092513	13:50	1	r.caress	52	3577	9
092513	13:50	1	r.muscular	53	1720	8
092513	13:50	1	r.alert	54	1312	5
092513	13:50	1	r.news	55	1009	5
092513	13:50	1	r.upset	56	1702	1
092513	13:50	1	r.movie	57	1776	9
092513	13:50	1	r.memory	58	1630	8
092513	13:50	1	r.warmth	59	2371	6
092513	13:50	1	r.optimism	60	1706	9
092513	13:50	1	howtype	1	24434	3
092613	13:30	1	speed	1	3269	52
092613	13:30	1	error	2	2373	82
092613	13:30	1	whichhand	3	6797	Right
092613	13:30	1	r.untroubled	1	7558	7
092613	13:30	1	r.idiot	2	2015	2
092613	13:30	1	r.black	3	1876	5
092613	13:30	1	r.danger	4	1439	4
092613	13:30	1	r.hairpin	5	1300	5
092613	13:30	1	r.rancid	6	1620	3
092613	13:30	1	r.butter	7	1714	5
092613	13:30	1	r.hurricane	8	1627	3
092613	13:30	1	r.fall	9	1791	7
092613	13:30	1	r.comedy	10	1549	8
092613	13:30	1	r.stagnant	11	2269	5
092613	13:30	1	r.privacy	12	1311	5
092613	13:30	1	r.defiant	13	841	5
092613	13:30	1	r.beautiful	14	1348	7
092613	13:30	1	r.lonely	15	1556	6
092613	13:30	1	r.inferior	16	1291	4
092613	13:30	1	r.barrel	17	958	5
092613	13:30	1	r.pretty	18	1317	6
092613	13:30	1	r.panic	19	934	5
092613	13:30	1	r.couple	20	2101	5
092613	13:30	1	r.spring	21	1487	7
092613	13:30	1	r.statue	22	969	5
092613	13:30	1	r.fearful	23	1200	4
092613	13:30	1	r.drown	24	2397	3
092613	13:30	1	r.scream	25	1043	5
092613	13:30	1	r.party	26	2175	4
092613	13:30	1	r.crown	27	1132	5
092613	13:30	1	r.dagger	28	2118	4
092613	13:30	1	r.dark	29	1895	7
092613	13:30	1	r.machine	30	904	5
092613	13:30	1	r.tune	31	2610	8
092613	13:30	1	r.locker	32	975	5
092613	13:30	1	r.soft	33	1173	6
092613	13:30	1	r.thoughtful	34	996	6
092613	13:30	1	r.odd	35	1521	7
092613	13:30	1	r.scornful	36	850	5
092613	13:30	1	r.hydrant	37	1246	6
092613	13:30	1	r.material	38	1521	5
092613	13:30	1	r.habit	39	1258	5
092613	13:30	1	r.morgue	40	1845	6
092613	13:30	1	r.key	41	1625	7
092613	13:30	1	r.savior	42	1438	9
092613	13:30	1	r.cork	43	1489	5
092613	13:30	1	r.scum	44	1092	5
092613	13:30	1	r.trophy	45	1510	7
092613	13:30	1	r.diver	46	2086	8
092613	13:30	1	r.slave	47	1392	4
092613	13:30	1	r.heal	48	1511	7
092613	13:30	1	r.nuisance	49	1695	3
092613	13:30	1	r.answer	50	1185	5
092613	13:30	1	r.grass	51	1567	4
092613	13:30	1	r.earth	52	1325	6
092613	13:30	1	r.warmth	53	1198	7
092613	13:30	1	r.world	54	1500	5
092613	13:30	1	r.impressed	55	1694	7
092613	13:30	1	r.disgusted	56	1455	3
092613	13:30	1	r.pistol	57	1138	5
092613	13:30	1	r.finger	58	1218	4
092613	13:30	1	r.cook	59	1727	4
092613	13:30	1	r.charm	60	1464	8
092613	13:30	1	f.shreen	1	5271	3
092613	13:30	1	f.smage	2	1283	3
092613	13:30	1	f.pabe	3	1285	5
092613	13:30	1	f.peeb	4	1134	4
092613	13:30	1	f.skoshe	5	1175	3
092613	13:30	1	f.bave	6	1246	3
092613	13:30	1	f.wathe	7	1018	4
092613	13:30	1	f.shoose	8	1349	5
092613	13:30	1	f.krare	9	958	4
092613	13:30	1	f.threeve	10	1381	4
092613	13:30	1	f.steech	11	1003	5
092613	13:30	1	f.smathe	12	1704	3
092613	13:30	1	f.geeth	13	1546	2
092613	13:30	1	f.breer	14	1145	4
092613	13:30	1	f.floog	15	1409	3
092613	13:30	1	f.kweesh	16	1734	1
092613	13:30	1	f.meesh	17	1830	1
092613	13:30	1	f.frooth	18	970	1
092613	13:30	1	f.skague	19	1089	2
092613	13:30	1	f.sogue	20	923	4
092613	13:30	1	f.threesh	21	1100	4
092613	13:30	1	f.deeb	22	1021	3
092613	13:30	1	f.dware	23	962	4
092613	13:30	1	f.yeech	24	1457	1
092613	13:30	1	f.bloge	25	1396	4
092613	13:30	1	f.plake	26	1050	4
092613	13:30	1	f.kwashe	27	1429	1
092613	13:30	1	f.smane	28	1216	3
092613	13:30	1	f.fleeth	29	1869	1
092613	13:30	1	f.pleel	30	737	1
092613	13:30	1	f.thague	31	961	2
092613	13:30	1	f.steese	32	936	3
092613	13:30	1	f.zoot	33	1008	2
092613	13:30	1	f.spooth	34	1356	1
092613	13:30	1	f.gwoon	35	1196	1
092613	13:30	1	f.doof	36	1769	4
092613	13:30	1	f.dweef	37	1041	1
092613	13:30	1	f.dwook	38	1260	1
092613	13:30	1	f.twathe	39	1127	1
092613	13:30	1	f.tooge	40	1007	2
092613	13:30	1	f.zake	41	1716	3
092613	13:30	1	f.toge	42	877	3
092613	13:30	1	f.throoge	43	1351	2
092613	13:30	1	f.speet	44	991	2
092613	13:30	1	f.shrage	45	1013	3
092613	13:30	1	f.soshe	46	1425	4
092613	13:30	1	f.twoom	47	1006	3
092613	13:30	1	f.theep	48	1515	2
092613	13:30	1	f.threer	49	1636	1
092613	13:30	1	f.dreeth	50	1080	1
092613	13:30	1	f.thwoche	51	1139	1
092613	13:30	1	f.shroose	52	1026	1
092613	13:30	1	f.thwoose	53	1671	1
092613	13:30	1	f.shrofe	54	970	2
092613	13:30	1	f.slooch	55	1664	1
092613	13:30	1	f.thwaze	56	2035	5
092613	13:30	1	f.gwoosh	57	1255	2
092613	13:30	1	f.blooge	58	1219	4
092613	13:30	1	f.kwase	59	1104	3
092613	13:30	1	f.treech	60	1129	2
092613	13:30	1	howtype	1	9559	6
092613	14:24	1	speed	1	3246	50
092613	14:24	1	error	2	2160	100
092613	14:24	1	whichhand	3	7224	Right
092613	14:24	1	r.confused	1	8637	6
092613	14:24	1	r.dirt	2	3852	1
092613	14:24	1	r.consoled	3	3648	7
092613	14:24	1	r.gripe	4	2780	2
092613	14:24	1	r.dead	5	2475	1
092613	14:24	1	r.voyage	6	3222	9
092613	14:24	1	r.bouquet	7	2051	9
092613	14:24	1	r.penalty	8	2159	2
092613	14:24	1	r.tornado	9	1959	1
092613	14:24	1	r.luxury	10	1702	9
092613	14:24	1	r.dawn	11	2488	7
092613	14:24	1	r.stench	12	1858	1
092613	14:24	1	r.cyclone	13	2247	1
092613	14:24	1	r.roach	14	1865	1
092613	14:24	1	r.restaurant	15	2388	8
092613	14:24	1	r.odd	16	2419	7
092613	14:24	1	r.eat	17	1750	9
092613	14:24	1	r.blossom	18	1264	9
092613	14:24	1	r.barrel	19	1618	8
092613	14:24	1	r.inspired	20	1343	9
092613	14:24	1	r.hydrant	21	2583	7
092613	14:24	1	r.gold	22	2789	9
092613	14:24	1	r.scapegoat	23	2235	3
092613	14:24	1	r.agility	24	2304	6
092613	14:24	1	r.venom	25	1834	2
092613	14:24	1	r.rabies	26	1582	2
092613	14:24	1	r.affection	27	2196	9
092613	14:24	1	r.statue	28	1778	7
092613	14:24	1	r.insolent	29	3488	4
092613	14:24	1	r.sweetheart	30	1363	9
092613	14:24	1	r.tank	31	3906	4
092613	14:24	1	r.black	32	2300	7
092613	14:24	1	r.theory	33	1597	7
092613	14:24	1	r.nonsense	34	1747	6
092613	14:24	1	r.wife	35	1539	7
092613	14:24	1	r.dirty	36	3939	4
092613	14:24	1	r.elegant	37	1924	9
092613	14:24	1	r.riot	38	1973	6
092613	14:24	1	r.ketchup	39	3708	4
092613	14:24	1	r.merry	40	1822	9
092613	14:24	1	r.dog	41	3291	8
092613	14:24	1	r.father	42	2102	8
092613	14:24	1	r.sky	43	1455	9
092613	14:24	1	r.aloof	44	2691	6
092613	14:24	1	r.ecstasy	45	1997	8
092613	14:24	1	r.cuisine	46	2387	9
092613	14:24	1	r.horror	47	1905	6
092613	14:24	1	r.bus	48	2251	3
092613	14:24	1	r.beauty	49	1887	9
092613	14:24	1	r.nectar	50	1577	6
092613	14:24	1	r.material	51	2815	8
092613	14:24	1	r.event	52	2605	9
092613	14:24	1	r.tomb	53	1707	1
092613	14:24	1	r.manner	54	2307	6
092613	14:24	1	r.trunk	55	2886	6
092613	14:24	1	r.broken	56	1872	3
092613	14:24	1	r.hurricane	57	1595	1
092613	14:24	1	r.handicap	58	2280	1
092613	14:24	1	r.stupid	59	1491	1
092613	14:24	1	r.adult	60	2684	4
092613	14:24	1	f.freech	1	8131	6
092613	14:24	1	f.gweeze	2	5373	4
092613	14:24	1	f.loshe	3	1846	7
092613	14:24	1	f.yoob	4	2921	7
092613	14:24	1	f.bleege	5	5546	6
092613	14:24	1	f.snade	6	2771	7
092613	14:24	1	f.shreeze	7	2474	6
092613	14:24	1	f.deef	8	2318	1
092613	14:24	1	f.smeef	9	1830	2
092613	14:24	1	f.snove	10	2642	6
092613	14:24	1	f.snoge	11	5087	4
092613	14:24	1	f.zoob	12	1738	6
092613	14:24	1	f.vame	13	3442	6
092613	14:24	1	f.froof	14	1767	4
092613	14:24	1	f.tweem	15	2741	2
092613	14:24	1	f.zape	16	1894	2
092613	14:24	1	f.fague	17	2904	2
092613	14:24	1	f.shrooch	18	1922	9
092613	14:24	1	f.shroze	19	3546	8
092613	14:24	1	f.groog	20	1875	1
092613	14:24	1	f.gleeth	21	3550	4
092613	14:24	1	f.teesh	22	2166	4
092613	14:24	1	f.drague	23	2436	2
092613	14:24	1	f.sleeg	24	3697	6
092613	14:24	1	f.reesh	25	1627	6
092613	14:24	1	f.bleeb	26	2063	9
092613	14:24	1	f.snabe	27	3322	7
092613	14:24	1	f.skoke	28	2420	2
092613	14:24	1	f.voob	29	3625	8
092613	14:24	1	f.twofe	30	1511	2
092613	14:24	1	f.thween	31	1895	2
092613	14:24	1	f.bove	32	2273	9
092613	14:24	1	f.skague	33	2284	2
092613	14:24	1	f.shobe	34	1959	4
092613	14:24	1	f.dwook	35	2182	6
092613	14:24	1	f.pleesh	36	1924	8
092613	14:24	1	f.thabe	37	1557	7
092613	14:24	1	f.snache	38	1893	4
092613	14:24	1	f.zache	39	6630	4
092613	14:24	1	f.gwoge	40	1996	2
092613	14:24	1	f.toge	41	2618	6
092613	14:24	1	f.sloshe	42	1471	4
092613	14:24	1	f.stoof	43	4066	7
092613	14:24	1	f.swooze	44	2342	8
092613	14:24	1	f.smeeg	45	4486	4
092613	14:24	1	f.shreege	46	1898	3
092613	14:24	1	f.swoom	47	1683	9
092613	14:24	1	f.mothe	48	2405	4
092613	14:24	1	f.thwate	49	2458	3
092613	14:24	1	f.joof	50	2287	2
092613	14:24	1	f.veem	51	1665	2
092613	14:24	1	f.steeth	52	2836	3
092613	14:24	1	f.dothe	53	2496	4
092613	14:24	1	f.swase	54	2338	3
092613	14:24	1	f.plare	55	2106	9
092613	14:24	1	f.thook	56	3052	6
092613	14:24	1	f.krothe	57	1881	3
092613	14:24	1	f.vode	58	1650	9
092613	14:24	1	f.throre	59	1742	4
092613	14:24	1	f.yate	60	1790	9
092613	14:24	1	howtype	1	15771	6
092713	12:21	1	speed	1	3351	39
092713	12:21	1	error	2	2176	94
092713	12:21	1	whichhand	3	7137	left
092713	12:21	1	r.table	1	6546	5
092713	12:21	1	r.syphilis	2	9611	3
092713	12:21	1	r.chance	3	5219	5
092713	12:21	1	r.rabbit	4	7665	6
092713	12:21	1	r.garden	5	6166	6
092713	12:21	1	r.stagnant	6	6654	3
092713	12:21	1	r.meek	7	6675	5
092713	12:21	1	r.bake	8	5159	6
092713	12:21	1	r.discouraged	9	8271	2
092713	12:21	1	r.mutilate	10	8284	2
092713	12:21	1	r.stink	11	8935	3
092713	12:21	1	r.clothing	12	5026	5
092713	12:21	1	r.nasty	13	4424	3
092713	12:21	1	r.lighthouse	14	5406	5
092713	12:21	1	r.cork	15	4764	5
092713	12:21	1	r.politeness	16	8084	6
092713	12:21	1	r.poster	17	4912	5
092713	12:21	1	r.aloof	18	7538	5
092713	12:21	1	r.excitement	19	6452	7
092713	12:21	1	r.untroubled	20	6593	6
092713	12:21	1	r.truck	21	4553	5
092713	12:21	1	r.assassin	22	6249	2
092713	12:21	1	r.defiant	23	6254	5
092713	12:21	1	r.surprised	24	8107	7
092713	12:21	1	r.air	25	7078	5
092713	12:21	1	r.gangrene	26	7322	5
092713	12:21	1	r.dancer	27	8189	8
092713	12:21	1	r.shriek	28	7845	5
092713	12:21	1	r.alone	29	6547	1
092713	12:21	1	r.rainbow	30	7132	6
092713	12:21	1	r.ketchup	31	8062	5
092713	12:21	1	r.radiant	32	6715	6
092713	12:21	1	r.victim	33	9133	3
092713	12:21	1	r.pest	34	5895	4
092713	12:21	1	r.scissors	35	3971	5
092713	12:21	1	r.silly	36	4306	6
092713	12:21	1	r.perfection	37	5805	8
092713	12:21	1	r.woman	38	5907	5
092713	12:21	1	r.hell	39	4526	2
092713	12:21	1	r.glory	40	5216	8
092713	12:21	1	r.hydrant	41	5573	5
092713	12:21	1	r.couple	42	6534	8
092713	12:21	1	r.enjoyment	43	5231	8
092713	12:21	1	r.hope	44	5084	7
092713	12:21	1	r.madman	45	4912	5
092713	12:21	1	r.hopeful	46	5242	8
092713	12:21	1	r.doll	47	7326	6
092713	12:21	1	r.pillow	48	3281	5
092713	12:21	1	r.spouse	49	3243	9
092713	12:21	1	r.wealthy	50	4439	9
092713	12:21	1	r.volcano	51	4444	5
092713	12:21	1	r.cuisine	52	5801	5
092713	12:21	1	r.dazzle	53	4471	6
092713	12:21	1	r.idol	54	4684	6
092713	12:21	1	r.fight	55	4374	4
092713	12:21	1	r.comedy	56	6478	7
092713	12:21	1	r.menace	57	5721	4
092713	12:21	1	r.jug	58	5484	5
092713	12:21	1	r.cat	59	2832	6
092713	12:21	1	r.sissy	60	5324	7
092713	12:21	1	f.thweep	1	8970	5
092713	12:21	1	f.stache	2	5329	5
092713	12:21	1	f.gache	3	6850	5
092713	12:21	1	f.gwaze	4	7663	5
092713	12:21	1	f.gloke	5	6588	6
092713	12:21	1	f.kogue	6	5876	5
092713	12:21	1	f.thwoosh	7	5807	5
092713	12:21	1	f.dwoshe	8	5078	5
092713	12:21	1	f.flashe	9	6018	5
092713	12:21	1	f.thote	10	7296	5
092713	12:21	1	f.shroom	11	7018	5
092713	12:21	1	f.smooze	12	8394	5
092713	12:21	1	f.krooth	13	7202	5
092713	12:21	1	f.poog	14	5985	5
092713	12:21	1	f.floof	15	5720	5
092713	12:21	1	f.yoge	16	6147	5
092713	12:21	1	f.veek	17	4203	5
092713	12:21	1	f.kwoob	18	3938	5
092713	12:21	1	f.swoog	19	5427	5
092713	12:21	1	f.kweech	20	3928	5
092713	12:21	1	f.ploove	21	5577	4
092713	12:21	1	f.klood	22	4768	5
092713	12:21	1	f.mobe	23	5768	5
092713	12:21	1	f.chogue	24	5528	5
092713	12:21	1	f.feep	25	5562	5
092713	12:21	1	f.jome	26	4762	5
092713	12:21	1	f.glooge	27	6028	5
092713	12:21	1	f.chood	28	3434	5
092713	12:21	1	f.kroor	29	4758	5
092713	12:21	1	f.dwode	30	4366	5
092713	12:21	1	f.neeth	31	4502	5
092713	12:21	1	f.snathe	32	3520	5
092713	12:21	1	f.bleel	33	4722	5
092713	12:21	1	f.gleeg	34	4196	5
092713	12:21	1	f.veep	35	4570	5
092713	12:21	1	f.sleege	36	5426	5
092713	12:21	1	f.dathe	37	4503	5
092713	12:21	1	f.chothe	38	4154	5
092713	12:21	1	f.twool	39	4082	5
092713	12:21	1	f.theep	40	4037	5
092713	12:21	1	f.thwood	41	4001	5
092713	12:21	1	f.noof	42	4039	5
092713	12:21	1	f.vage	43	5556	5
092713	12:21	1	f.swase	44	4532	5
092713	12:21	1	f.slood	45	3966	5
092713	12:21	1	f.shoog	46	4661	5
092713	12:21	1	f.freeb	47	3721	5
092713	12:21	1	f.shroove	48	3539	5
092713	12:21	1	f.thrache	49	3499	5
092713	12:21	1	f.klogue	50	4549	5
092713	12:21	1	f.pague	51	4398	5
092713	12:21	1	f.stague	52	4540	5
092713	12:21	1	f.klashe	53	6573	4
092713	12:21	1	f.vape	54	3494	5
092713	12:21	1	f.glothe	55	3664	4
092713	12:21	1	f.throove	56	2716	5
092713	12:21	1	f.glooch	57	3429	5
092713	12:21	1	f.twome	58	3290	5
092713	12:21	1	f.trague	59	3836	5
092713	12:21	1	f.dreese	60	3561	5
092713	12:21	1	howtype	1	9887	3
092713	15:00	1	speed	1	3023	52
092713	15:00	1	error	2	1624	96
092713	15:00	1	whichhand	3	10376	Right
092713	15:00	1	r.robber	1	11924	1
092713	15:00	1	r.wine	2	3360	5
092713	15:00	1	r.modest	3	4240	4
092713	15:00	1	r.bouquet	4	3365	8
092713	15:00	1	r.safe	5	2412	9
092713	15:00	1	r.flower	6	3561	6
092713	15:00	1	r.spirit	7	3920	5
092713	15:00	1	r.vandal	8	3546	4
092713	15:00	1	r.corner	9	2730	5
092713	15:00	1	r.hamburger	10	2515	6
092713	15:00	1	r.nonsense	11	2132	5
092713	15:00	1	r.patent	12	5301	5
092713	15:00	1	r.heaven	13	4351	9
092713	15:00	1	r.innocent	14	5263	4
092713	15:00	1	r.offend	15	3388	4
092713	15:00	1	r.dreadful	16	6866	2
092713	15:00	1	r.mushroom	17	4447	2
092713	15:00	1	r.dove	18	3595	6
092713	15:00	1	r.outdoors	19	2785	8
092713	15:00	1	r.honey	20	2400	8
092713	15:00	1	r.mind	21	2326	5
092713	15:00	1	r.diploma	22	2310	9
092713	15:00	1	r.cottage	23	1743	9
092713	15:00	1	r.identity	24	3327	4
092713	15:00	1	r.grateful	25	3472	7
092713	15:00	1	r.fall	26	2187	8
092713	15:00	1	r.skeptical	27	5178	5
092713	15:00	1	r.nervous	28	3665	3
092713	15:00	1	r.sad	29	2283	1
092713	15:00	1	r.red	30	1999	8
092713	15:00	1	r.dummy	31	2780	4
092713	15:00	1	r.romantic	32	4172	7
092713	15:00	1	r.severe	33	5227	4
092713	15:00	1	r.kettle	34	2144	8
092713	15:00	1	r.naked	35	2376	9
092713	15:00	1	r.detached	36	4254	5
092713	15:00	1	r.spanking	37	2067	5
092713	15:00	1	r.breast	38	3430	5
092713	15:00	1	r.assault	39	2314	2
092713	15:00	1	r.mildew	40	3123	1
092713	15:00	1	r.slaughter	41	1413	1
092713	15:00	1	r.humor	42	1474	9
092713	15:00	1	r.anger	43	2516	2
092713	15:00	1	r.neglect	44	1973	2
092713	15:00	1	r.obscene	45	2308	5
092713	15:00	1	r.poverty	46	2462	1
092713	15:00	1	r.luxury	47	6489	4
092713	15:00	1	r.lazy	48	2421	3
092713	15:00	1	r.malaria	49	1962	1
092713	15:00	1	r.table	50	1586	5
092713	15:00	1	r.quiet	51	2223	8
092713	15:00	1	r.baby	52	2124	9
092713	15:00	1	r.agility	53	2030	6
092713	15:00	1	r.relaxed	54	2874	9
092713	15:00	1	r.adult	55	10525	3
092713	15:00	1	r.river	56	1912	9
092713	15:00	1	r.awed	57	1761	5
092713	15:00	1	r.dirt	58	2640	4
092713	15:00	1	r.derelict	59	1788	5
092713	15:00	1	r.resent	60	3171	3
092713	15:00	1	f.gwoob	1	6242	5
092713	15:00	1	f.shrase	2	6599	4
092713	15:00	1	f.thwote	3	8270	6
092713	15:00	1	f.vage	4	2195	1
092713	15:00	1	f.flope	5	2625	3
092713	15:00	1	f.vood	6	2670	5
092713	15:00	1	f.gwole	7	3249	6
092713	15:00	1	f.feeg	8	3069	6
092713	15:00	1	f.speege	9	2680	5
092713	15:00	1	f.groog	10	1667	5
092713	15:00	1	f.zove	11	2958	8
092713	15:00	1	f.shrathe	12	4230	4
092713	15:00	1	f.jache	13	1706	5
092713	15:00	1	f.plare	14	1500	5
092713	15:00	1	f.jobe	15	3022	7
092713	15:00	1	f.twoof	16	4435	6
092713	15:00	1	f.spoosh	17	4496	9
092713	15:00	1	f.kwape	18	2619	5
092713	15:00	1	f.smeeze	19	2063	6
092713	15:00	1	f.thwoge	20	2187	5
092713	15:00	1	f.shreen	21	4753	5
092713	15:00	1	f.jofe	22	2889	5
092713	15:00	1	f.gweel	23	3212	4
092713	15:00	1	f.skoose	24	2802	5
092713	15:00	1	f.toshe	25	2031	8
092713	15:00	1	f.throshe	26	2100	3
092713	15:00	1	f.dwoove	27	1757	5
092713	15:00	1	f.steef	28	2277	5
092713	15:00	1	f.shrague	29	2179	5
092713	15:00	1	f.shrare	30	1470	5
092713	15:00	1	f.grache	31	4633	5
092713	15:00	1	f.broshe	32	3606	5
092713	15:00	1	f.klabe	33	4948	4
092713	15:00	1	f.thate	34	2085	5
092713	15:00	1	f.klode	35	2255	5
092713	15:00	1	f.swooth	36	2571	5
092713	15:00	1	f.krashe	37	2090	3
092713	15:00	1	f.noshe	38	1684	5
092713	15:00	1	f.yoop	39	1774	6
092713	15:00	1	f.vashe	40	1477	5
092713	15:00	1	f.dwoosh	41	1152	5
092713	15:00	1	f.swole	42	1887	3
092713	15:00	1	f.gleeth	43	4488	6
092713	15:00	1	f.snathe	44	1972	5
092713	15:00	1	f.prome	45	2083	8
092713	15:00	1	f.steeth	46	1573	5
092713	15:00	1	f.vabe	47	2132	4
092713	15:00	1	f.dwooch	48	3341	4
092713	15:00	1	f.skeesh	49	2677	5
092713	15:00	1	f.bloob	50	2248	3
092713	15:00	1	f.shroche	51	2500	3
092713	15:00	1	f.froof	52	1861	5
092713	15:00	1	f.bove	53	1824	8
092713	15:00	1	f.froge	54	2414	6
092713	15:00	1	f.smeeb	55	5211	6
092713	15:00	1	f.thade	56	1905	5
092713	15:00	1	f.frogue	57	1338	6
092713	15:00	1	f.keeg	58	1378	5
092713	15:00	1	f.drase	59	1208	5
092713	15:00	1	f.sneesh	60	854	5
092713	15:00	1	howtype	1	13015	7
093013	11:00	1	speed	1	2933	30
093013	11:00	1	error	2	1310	93
093013	11:00	1	whichhand	3	7112	right
093013	11:00	1	f.dwope	1	12259	1
093013	11:00	1	f.sposhe	2	4106	4
093013	11:00	1	f.fofe	3	3804	5
093013	11:00	1	f.twafe	4	3690	3
093013	11:00	1	f.feeg	5	2885	4
093013	11:00	1	f.froche	6	4288	5
093013	11:00	1	f.flathe	7	2907	5
093013	11:00	1	f.swabe	8	2789	6
093013	11:00	1	f.froove	9	2275	6
093013	11:00	1	f.chothe	10	2454	7
093013	11:00	1	f.frathe	11	2658	4
093013	11:00	1	f.gache	12	1942	2
093013	11:00	1	f.joof	13	2030	5
093013	11:00	1	f.yoof	14	1915	5
093013	11:00	1	f.twave	15	1611	4
093013	11:00	1	f.flashe	16	3792	7
093013	11:00	1	f.drate	17	2975	4
093013	11:00	1	f.mashe	18	2414	6
093013	11:00	1	f.pabe	19	2147	4
093013	11:00	1	f.stothe	20	1507	3
093013	11:00	1	f.proot	21	1820	5
093013	11:00	1	f.chague	22	1841	4
093013	11:00	1	f.chole	23	2182	7
093013	11:00	1	f.yame	24	1972	6
093013	11:00	1	f.shroor	25	2923	4
093013	11:00	1	f.yogue	26	1964	7
093013	11:00	1	f.yafe	27	2059	5
093013	11:00	1	f.dreech	28	2143	3
093013	11:00	1	f.cheed	29	12126	3
093013	11:00	1	f.snashe	30	2186	4
093013	11:00	1	f.broob	31	1521	3
093013	11:00	1	f.vave	32	1281	3
093013	11:00	1	f.deef	33	1388	4
093013	11:00	1	f.gwague	34	1594	2
093013	11:00	1	f.freep	35	4143	5
093013	11:00	1	f.poob	36	2799	4
093013	11:00	1	f.drooze	37	1709	7
093013	11:00	1	f.twoof	38	2215	6
093013	11:00	1	f.boshe	39	1684	3
093013	11:00	1	f.gwoof	40	2374	7
093013	11:00	1	f.foob	41	3781	7
093013	11:00	1	f.froshe	42	3292	5
093013	11:00	1	f.blathe	43	2863	7
093013	11:00	1	f.slague	44	3698	5
093013	11:00	1	f.snoosh	45	1396	5
093013	11:00	1	f.cheege	46	1578	7
093013	11:00	1	f.gwoove	47	3400	5
093013	11:00	1	f.sleer	48	5462	6
093013	11:00	1	f.sague	49	1370	4
093013	11:00	1	f.thrame	50	1089	5
093013	11:00	1	f.zeer	51	1626	4
093013	11:00	1	f.glooth	52	1863	5
093013	11:00	1	f.kweed	53	874	4
093013	11:00	1	f.dwose	54	4268	8
093013	11:00	1	f.shrave	55	5663	8
093013	11:00	1	f.spope	56	4948	7
093013	11:00	1	f.skook	57	4732	5
093013	11:00	1	f.flope	58	3446	8
093013	11:00	1	f.zoot	59	3050	7
093013	11:00	1	f.shoche	60	2157	5
093013	11:00	1	r.sunset	1	4986	9
093013	11:00	1	r.jolly	2	4034	9
093013	11:00	1	r.prestige	3	3590	5
093013	11:00	1	r.gymnast	4	1838	6
093013	11:00	1	r.tender	5	2169	4
093013	11:00	1	r.vandal	6	2561	2
093013	11:00	1	r.spouse	7	2232	7
093013	11:00	1	r.poverty	8	4748	4
093013	11:00	1	r.horror	9	2309	1
093013	11:00	1	r.adventure	10	3134	5
093013	11:00	1	r.alert	11	4583	5
093013	11:00	1	r.dark	12	1542	1
093013	11:00	1	r.trophy	13	1542	9
093013	11:00	1	r.queen	14	1470	9
093013	11:00	1	r.excellence	15	1465	9
093013	11:00	1	r.scalding	16	1564	2
093013	11:00	1	r.pleasure	17	1138	9
093013	11:00	1	r.interest	18	3027	6
093013	11:00	1	r.jelly	19	2831	5
093013	11:00	1	r.tornado	20	1500	1
093013	11:00	1	r.sick	21	1038	1
093013	11:00	1	r.riot	22	2481	5
093013	11:00	1	r.pest	23	1916	1
093013	11:00	1	r.lightning	24	2709	5
093013	11:00	1	r.lust	25	1814	7
093013	11:00	1	r.panic	26	1379	1
093013	11:00	1	r.sunlight	27	1585	9
093013	11:00	1	r.guillotine	28	3295	3
093013	11:00	1	r.mountain	29	8497	8
093013	11:00	1	r.mighty	30	1565	9
093013	11:00	1	r.bees	31	2124	2
093013	11:00	1	r.vest	32	2389	1
093013	11:00	1	r.morbid	33	1627	1
093013	11:00	1	r.hawk	34	1928	4
093013	11:00	1	r.maniac	35	1768	1
093013	11:00	1	r.bird	36	2775	5
093013	11:00	1	r.deserter	37	2141	1
093013	11:00	1	r.terrible	38	1166	1
093013	11:00	1	r.plant	39	3045	5
093013	11:00	1	r.lively	40	1945	9
093013	11:00	1	r.dream	41	1504	8
093013	11:00	1	r.treat	42	2497	8
093013	11:00	1	r.messy	43	3739	1
093013	11:00	1	r.offend	44	2380	1
093013	11:00	1	r.mantel	45	2947	3
093013	11:00	1	r.applause	46	2826	8
093013	11:00	1	r.coast	47	2439	7
093013	11:00	1	r.lucky	48	1068	7
093013	11:00	1	r.mildew	49	2422	5
093013	11:00	1	r.addicted	50	1507	1
093013	11:00	1	r.cyclone	51	1668	2
093013	11:00	1	r.travel	52	2542	9
093013	11:00	1	r.loved	53	1248	9
093013	11:00	1	r.woman	54	2947	5
093013	11:00	1	r.pizza	55	3343	9
093013	11:00	1	r.romantic	56	2555	9
093013	11:00	1	r.kind	57	2483	9
093013	11:00	1	r.hostile	58	1629	1
093013	11:00	1	r.snake	59	2010	3
093013	11:00	1	r.ulcer	60	2022	1
093013	11:00	1	howtype	1	15354	7
100113	12:19	1	speed	1	3083	16
100113	12:19	1	error	2	2133	93
100113	12:19	1	whichhand	3	6030	right
100113	12:19	1	f.thwase	1	8423	9
100113	12:19	1	f.thweer	2	3718	9
100113	12:19	1	f.shooge	3	3999	8
100113	12:19	1	f.dwoose	4	2406	5
100113	12:19	1	f.klabe	5	2739	5
100113	12:19	1	f.noog	6	1621	5
100113	12:19	1	f.shrafe	7	2553	3
100113	12:19	1	f.brooth	8	2369	5
100113	12:19	1	f.dware	9	1272	5
100113	12:19	1	f.klade	10	1394	5
100113	12:19	1	f.throog	11	3840	5
100113	12:19	1	f.dwote	12	1548	5
100113	12:19	1	f.tweeg	13	900	5
100113	12:19	1	f.zoge	14	1206	5
100113	12:19	1	f.thobe	15	1171	5
100113	12:19	1	f.brage	16	1730	5
100113	12:19	1	f.plooge	17	1194	5
100113	12:19	1	f.stoob	18	5647	5
100113	12:19	1	f.spobe	19	2932	5
100113	12:19	1	f.kwoog	20	1149	5
100113	12:19	1	f.slood	21	5844	6
100113	12:19	1	f.speesh	22	2825	7
100113	12:19	1	f.plare	23	4566	7
100113	12:19	1	f.thrope	24	2286	2
100113	12:19	1	f.dwoosh	25	1761	5
100113	12:19	1	f.pleesh	26	1679	5
100113	12:19	1	f.toshe	27	5401	5
100113	12:19	1	f.thwabe	28	3448	2
100113	12:19	1	f.thole	29	2076	2
100113	12:19	1	f.kloop	30	1559	5
100113	12:19	1	f.swame	31	2590	1
100113	12:19	1	f.dwooze	32	2285	5
100113	12:19	1	f.drabe	33	2639	3
100113	12:19	1	f.shase	34	2076	5
100113	12:19	1	f.pathe	35	1719	5
100113	12:19	1	f.lale	36	2335	9
100113	12:19	1	f.stashe	37	1936	5
100113	12:19	1	f.krague	38	2080	5
100113	12:19	1	f.neef	39	2282	5
100113	12:19	1	f.dweep	40	2381	1
100113	12:19	1	f.thweek	41	4731	8
100113	12:19	1	f.jathe	42	3621	5
100113	12:19	1	f.zave	43	2162	5
100113	12:19	1	f.snoge	44	2185	5
100113	12:19	1	f.dwofe	45	1848	3
100113	12:19	1	f.bloosh	46	1076	5
100113	12:19	1	f.thrave	47	1190	5
100113	12:19	1	f.cheed	48	1076	5
100113	12:19	1	f.yeem	49	2478	8
100113	12:19	1	f.drare	50	3521	3
100113	12:19	1	f.gweech	51	1787	5
100113	12:19	1	f.prooth	52	1921	5
100113	12:19	1	f.smave	53	1946	5
100113	12:19	1	f.droze	54	1961	2
100113	12:19	1	f.stose	55	1856	5
100113	12:19	1	f.seeg	56	756	5
100113	12:19	1	f.threek	57	4211	5
100113	12:19	1	f.draze	58	1065	5
100113	12:19	1	f.spoop	59	3107	5
100113	12:19	1	f.joom	60	4093	7
100113	12:19	1	r.joy	1	2581	9
100113	12:19	1	r.addicted	2	1659	1
100113	12:19	1	r.heroin	3	1871	1
100113	12:19	1	r.cancer	4	2442	1
100113	12:19	1	r.pinch	5	2238	3
100113	12:19	1	r.cut	6	1514	1
100113	12:19	1	r.clothing	7	1779	9
100113	12:19	1	r.memory	8	1842	9
100113	12:19	1	r.inhabitant	9	2741	5
100113	12:19	1	r.phase	10	2238	5
100113	12:19	1	r.advantage	11	2179	9
100113	12:19	1	r.thrill	12	1777	9
100113	12:19	1	r.tank	13	2023	5
100113	12:19	1	r.elbow	14	1852	3
100113	12:19	1	r.accident	15	2080	1
100113	12:19	1	r.revolver	16	1826	1
100113	12:19	1	r.leisurely	17	1495	5
100113	12:19	1	r.option	18	2064	9
100113	12:19	1	r.mad	19	1539	1
100113	12:19	1	r.tobacco	20	2331	1
100113	12:19	1	r.wounds	21	3459	1
100113	12:19	1	r.madman	22	1511	1
100113	12:19	1	r.alone	23	1368	1
100113	12:19	1	r.anger	24	1223	1
100113	12:19	1	r.engine	25	2003	5
100113	12:19	1	r.blond	26	4801	5
100113	12:19	1	r.vest	27	1968	5
100113	12:19	1	r.sunlight	28	1983	9
100113	12:19	1	r.gentle	29	2509	5
100113	12:19	1	r.curious	30	1871	5
100113	12:19	1	r.vagina	31	2937	5
100113	12:19	1	r.depressed	32	3130	1
100113	12:19	1	r.vacation	33	1795	9
100113	12:19	1	r.dress	34	2905	9
100113	12:19	1	r.ketchup	35	1298	5
100113	12:19	1	r.embarrassed	36	1972	1
100113	12:19	1	r.handicap	37	2587	1
100113	12:19	1	r.handsome	38	1425	9
100113	12:19	1	r.coarse	39	1214	5
100113	12:19	1	r.maniac	40	2179	1
100113	12:19	1	r.good	41	1553	8
100113	12:19	1	r.terrified	42	1913	1
100113	12:19	1	r.spray	43	1442	5
100113	12:19	1	r.corridor	44	1390	5
100113	12:19	1	r.grin	45	1340	9
100113	12:19	1	r.bandage	46	2564	4
100113	12:19	1	r.decorate	47	3203	7
100113	12:19	1	r.present	48	3120	9
100113	12:19	1	r.time	49	2866	9
100113	12:19	1	r.repentant	50	2526	5
100113	12:19	1	r.tamper	51	2551	3
100113	12:19	1	r.excitement	52	3446	9
100113	12:19	1	r.rat	53	1923	1
100113	12:19	1	r.destroy	54	1708	5
100113	12:19	1	r.gold	55	1989	9
100113	12:19	1	r.FALSE	56	4348	1
100113	12:19	1	r.deformed	57	1316	5
100113	12:19	1	r.lamb	58	3013	5
100113	12:19	1	r.spirit	59	2378	8
100113	12:19	1	r.rude	60	1937	1
100113	12:19	1	howtype	1	7015	1
100113	12:50	1	speed	1	2985	75
100113	12:50	1	error	2	2210	93
100113	12:50	1	whichhand	3	5064	Right
100113	12:50	1	r.thoughtful	1	6653	6
100113	12:50	1	r.whistle	2	3194	4
100113	12:50	1	r.bankrupt	3	2520	1
100113	12:50	1	r.subdued	4	5241	4
100113	12:50	1	r.event	5	3582	6
100113	12:50	1	r.quart	6	2652	2
100113	12:50	1	r.spider	7	1721	1
100113	12:50	1	r.people	8	2298	8
100113	12:50	1	r.dollar	9	3459	9
100113	12:50	1	r.pig	10	2351	3
100113	12:50	1	r.mold	11	1599	1
100113	12:50	1	r.nude	12	2868	2
100113	12:50	1	r.flabby	13	1479	1
100113	12:50	1	r.free	14	2642	9
100113	12:50	1	r.pinch	15	3414	3
100113	12:50	1	r.kerchief	16	2996	5
100113	12:50	1	r.alcoholic	17	3266	1
100113	12:50	1	r.adult	18	2157	6
100113	12:50	1	r.zest	19	2213	6
100113	12:50	1	r.dancer	20	1882	8
100113	12:50	1	r.heaven	21	2420	9
100113	12:50	1	r.trumpet	22	1945	5
100113	12:50	1	r.snake	23	1993	1
100113	12:50	1	r.accident	24	1719	1
100113	12:50	1	r.wagon	25	1736	5
100113	12:50	1	r.pistol	26	2680	3
100113	12:50	1	r.sinful	27	3154	1
100113	12:50	1	r.tennis	28	2194	9
100113	12:50	1	r.silk	29	2016	7
100113	12:50	1	r.pretty	30	2125	9
100113	12:50	1	r.miracle	31	1637	9
100113	12:50	1	r.snow	32	1730	8
100113	12:50	1	r.pain	33	1914	2
100113	12:50	1	r.love	34	1731	9
100113	12:50	1	r.exercise	35	2243	7
100113	12:50	1	r.heroin	36	7783	5
100113	12:50	1	r.storm	37	2000	8
100113	12:50	1	r.hide	38	2381	3
100113	12:50	1	r.jealousy	39	2131	2
100113	12:50	1	r.heart	40	1876	8
100113	12:50	1	r.infatuation	41	3350	9
100113	12:50	1	r.freedom	42	6878	9
100113	12:50	1	r.venom	43	4962	3
100113	12:50	1	r.city	44	2074	5
100113	12:50	1	r.poetry	45	2365	6
100113	12:50	1	r.untroubled	46	2516	9
100113	12:50	1	r.slap	47	1885	2
100113	12:50	1	r.key	48	2095	5
100113	12:50	1	r.overwhelmed	49	2825	2
100113	12:50	1	r.gangrene	50	2382	1
100113	12:50	1	r.slave	51	3172	1
100113	12:50	1	r.color	52	2148	8
100113	12:50	1	r.iron	53	2227	5
100113	12:50	1	r.letter	54	2056	6
100113	12:50	1	r.house	55	1699	5
100113	12:50	1	r.idea	56	2237	7
100113	12:50	1	r.sunset	57	2305	8
100113	12:50	1	r.cork	58	1786	5
100113	12:50	1	r.dinner	59	1913	8
100113	12:50	1	r.victory	60	2970	9
100113	12:50	1	f.jeet	1	4513	6
100113	12:50	1	f.snogue	2	2579	4
100113	12:50	1	f.prook	3	4546	3
100113	12:50	1	f.sneege	4	2194	5
100113	12:50	1	f.dache	5	3304	3
100113	12:50	1	f.brope	6	5074	6
100113	12:50	1	f.jeeb	7	2214	5
100113	12:50	1	f.plake	8	3139	5
100113	12:50	1	f.sleesh	9	1843	4
100113	12:50	1	f.kroosh	10	1711	5
100113	12:50	1	f.kogue	11	1712	6
100113	12:50	1	f.floche	12	3113	5
100113	12:50	1	f.dwoove	13	1578	5
100113	12:50	1	f.prage	14	3105	5
100113	12:50	1	f.zore	15	2267	5
100113	12:50	1	f.gwood	16	2965	6
100113	12:50	1	f.spope	17	2637	5
100113	12:50	1	f.slobe	18	1505	5
100113	12:50	1	f.jabe	19	1867	5
100113	12:50	1	f.tweeve	20	1031	5
100113	12:50	1	f.choge	21	994	5
100113	12:50	1	f.sloom	22	1591	5
100113	12:50	1	f.jashe	23	4389	5
100113	12:50	1	f.toshe	24	1204	5
100113	12:50	1	f.gweege	25	1058	5
100113	12:50	1	f.zeek	26	2157	4
100113	12:50	1	f.trooch	27	1741	4
100113	12:50	1	f.zeer	28	1341	5
100113	12:50	1	f.tague	29	1421	5
100113	12:50	1	f.preege	30	2234	5
100113	12:50	1	f.frathe	31	1742	5
100113	12:50	1	f.yofe	32	1391	5
100113	12:50	1	f.froche	33	1581	5
100113	12:50	1	f.throom	34	1435	5
100113	12:50	1	f.threem	35	1063	5
100113	12:50	1	f.dwoot	36	1082	5
100113	12:50	1	f.ploge	37	1076	5
100113	12:50	1	f.joog	38	838	5
100113	12:50	1	f.nage	39	1779	5
100113	12:50	1	f.thole	40	3689	5
100113	12:50	1	f.dwashe	41	3507	5
100113	12:50	1	f.bloof	42	2165	5
100113	12:50	1	f.swabe	43	948	5
100113	12:50	1	f.geech	44	892	5
100113	12:50	1	f.broosh	45	1086	5
100113	12:50	1	f.troog	46	1528	5
100113	12:50	1	f.pleege	47	2128	5
100113	12:50	1	f.froof	48	992	5
100113	12:50	1	f.kreech	49	1142	5
100113	12:50	1	f.thwabe	50	1135	5
100113	12:50	1	f.dwooge	51	1038	5
100113	12:50	1	f.kloshe	52	995	5
100113	12:50	1	f.jofe	53	928	5
100113	12:50	1	f.droof	54	1712	5
100113	12:50	1	f.smathe	55	1393	5
100113	12:50	1	f.vape	56	1062	5
100113	12:50	1	f.fogue	57	1145	5
100113	12:50	1	f.veef	58	1520	5
100113	12:50	1	f.dwoche	59	1673	5
100113	12:50	1	f.shache	60	3372	6
100113	12:50	1	howtype	1	10226	7
100113	13:36	1	speed	1	3622	62
100113	13:36	1	error	2	2240	98
100113	13:36	1	whichhand	3	8461	right
100113	13:36	1	r.city	1	8303	5
100113	13:36	1	r.disdainful	2	4363	3
100113	13:36	1	r.useful	3	2547	6
100113	13:36	1	r.lamp	4	2427	5
100113	13:36	1	r.coarse	5	1695	4
100113	13:36	1	r.fever	6	1697	2
100113	13:36	1	r.dark	7	3836	3
100113	13:36	1	r.disturb	8	1800	3
100113	13:36	1	r.mutilate	9	2341	3
100113	13:36	1	r.peace	10	2293	8
100113	13:36	1	r.bunny	11	2567	6
100113	13:36	1	r.prestige	12	1494	6
100113	13:36	1	r.car	13	3528	6
100113	13:36	1	r.morgue	14	1569	5
100113	13:36	1	r.nonchalant	15	1447	6
100113	13:36	1	r.mischief	16	1467	4
100113	13:36	1	r.smooth	17	2061	5
100113	13:36	1	r.violent	18	1417	3
100113	13:36	1	r.cheer	19	1534	8
100113	13:36	1	r.gymnast	20	1382	5
100113	13:36	1	r.blind	21	2555	1
100113	13:36	1	r.depressed	22	1372	1
100113	13:36	1	r.delight	23	1307	9
100113	13:36	1	r.garbage	24	1523	2
100113	13:36	1	r.dead	25	1253	1
100113	13:36	1	r.riches	26	1248	8
100113	13:36	1	r.crushed	27	1836	1
100113	13:36	1	r.deceit	28	1863	5
100113	13:36	1	r.heroin	29	1514	1
100113	13:36	1	r.lighthouse	30	1244	6
100113	13:36	1	r.anxious	31	1455	3
100113	13:36	1	r.passion	32	2034	6
100113	13:36	1	r.answer	33	2119	5
100113	13:36	1	r.gift	34	888	5
100113	13:36	1	r.assassin	35	2049	3
100113	13:36	1	r.solemn	36	1174	5
100113	13:36	1	r.hopeful	37	1348	7
100113	13:36	1	r.breeze	38	1315	5
100113	13:36	1	r.obsession	39	2212	4
100113	13:36	1	r.fearful	40	1713	3
100113	13:36	1	r.scream	41	2073	3
100113	13:36	1	r.obesity	42	2717	1
100113	13:36	1	r.knowledge	43	1646	5
100113	13:36	1	r.inhabitant	44	2010	5
100113	13:36	1	r.hammer	45	967	5
100113	13:36	1	r.tune	46	4422	5
100113	13:36	1	r.sweetheart	47	2116	9
100113	13:36	1	r.insect	48	1596	3
100113	13:36	1	r.poster	49	3042	5
100113	13:36	1	r.garden	50	975	5
100113	13:36	1	r.art	51	1173	5
100113	13:36	1	r.king	52	1980	6
100113	13:36	1	r.untroubled	53	1346	6
100113	13:36	1	r.win	54	1193	6
100113	13:36	1	r.thoughtful	55	2143	8
100113	13:36	1	r.comedy	56	1447	7
100113	13:36	1	r.surgery	57	1778	2
100113	13:36	1	r.bankrupt	58	1424	1
100113	13:36	1	r.wagon	59	1229	5
100113	13:36	1	r.rock	60	1746	5
100113	13:36	1	f.kleel	1	1968	5
100113	13:36	1	f.thwode	2	5399	2
100113	13:36	1	f.treege	3	4838	4
100113	13:36	1	f.dwoog	4	4283	5
100113	13:36	1	f.droose	5	1278	5
100113	13:36	1	f.ploof	6	736	5
100113	13:36	1	f.kwoosh	7	600	5
100113	13:36	1	f.thwoob	8	1309	5
100113	13:36	1	f.ploor	9	743	5
100113	13:36	1	f.grobe	10	710	5
100113	13:36	1	f.pleeve	11	759	5
100113	13:36	1	f.swaze	12	1014	5
100113	13:36	1	f.flashe	13	4163	6
100113	13:36	1	f.throche	14	1418	5
100113	13:36	1	f.swofe	15	911	5
100113	13:36	1	f.gwome	16	672	5
100113	13:36	1	f.poshe	17	4586	6
100113	13:36	1	f.smofe	18	1714	5
100113	13:36	1	f.foob	19	474	5
100113	13:36	1	f.kwabe	20	612	5
100113	13:36	1	f.dwashe	21	1865	5
100113	13:36	1	f.skame	22	419	5
100113	13:36	1	f.jame	23	1984	5
100113	13:36	1	f.groor	24	2223	5
100113	13:36	1	f.thrave	25	1572	5
100113	13:36	1	f.smeeb	26	699	5
100113	13:36	1	f.thwook	27	732	5
100113	13:36	1	f.voom	28	371	5
100113	13:36	1	f.smose	29	378	5
100113	13:36	1	f.gwofe	30	1256	5
100113	13:36	1	f.beeg	31	1731	5
100113	13:36	1	f.frove	32	2012	5
100113	13:36	1	f.sposhe	33	1057	5
100113	13:36	1	f.treeg	34	2212	5
100113	13:36	1	f.shrole	35	1297	5
100113	13:36	1	f.kloche	36	1570	5
100113	13:36	1	f.froob	37	769	5
100113	13:36	1	f.preege	38	664	5
100113	13:36	1	f.poob	39	691	5
100113	13:36	1	f.kleech	40	676	5
100113	13:36	1	f.throle	41	478	5
100113	13:36	1	f.swogue	42	560	5
100113	13:36	1	f.threech	43	471	5
100113	13:36	1	f.thwage	44	1361	5
100113	13:36	1	f.prathe	45	1776	5
100113	13:36	1	f.zeet	46	327	5
100113	13:36	1	f.sheech	47	926	5
100113	13:36	1	f.shrooch	48	486	5
100113	13:36	1	f.thwooch	49	2168	5
100113	13:36	1	f.shreef	50	1647	5
100113	13:36	1	f.thooch	51	379	5
100113	13:36	1	f.thwague	52	369	5
100113	13:36	1	f.thweel	53	302	5
100113	13:36	1	f.drate	54	360	5
100113	13:36	1	f.dweeg	55	351	5
100113	13:36	1	f.yoon	56	478	5
100113	13:36	1	f.dabe	57	423	5
100113	13:36	1	f.frashe	58	396	5
100113	13:36	1	f.blothe	59	1449	5
100113	13:36	1	f.twashe	60	3917	5
100113	13:36	1	howtype	1	8109	2
100113	14:01	1	speed	1	2758	47
100113	14:01	1	error	2	2242	97
100113	14:01	1	whichhand	3	11038	right
100113	14:01	1	r.house	1	12100	5
100113	14:01	1	r.blister	2	9003	2
100113	14:01	1	r.diamond	3	8515	4
100113	14:01	1	r.rain	4	4502	8
100113	14:01	1	r.rifle	5	4376	4
100113	14:01	1	r.swimmer	6	3208	6
100113	14:01	1	r.garbage	7	3349	1
100113	14:01	1	r.dancer	8	3501	8
100113	14:01	1	r.power	9	4648	3
100113	14:01	1	r.inspired	10	3396	9
100113	14:01	1	r.thought	11	4962	7
100113	14:01	1	r.punishment	12	3450	2
100113	14:01	1	r.sheltered	13	5126	2
100113	14:01	1	r.chocolate	14	7063	8
100113	14:01	1	r.drown	15	7092	3
100113	14:01	1	r.bastard	16	3368	1
100113	14:01	1	r.body	17	7399	4
100113	14:01	1	r.modest	18	10390	4
100113	14:01	1	r.dustpan	19	6262	2
100113	14:01	1	r.slaughter	20	6779	4
100113	14:01	1	r.theory	21	7274	4
100113	14:01	1	r.burdened	22	6239	3
100113	14:01	1	r.news	23	5628	7
100113	14:01	1	r.idol	24	4058	4
100113	14:01	1	r.memories	25	6054	7
100113	14:01	1	r.reptile	26	5227	6
100113	14:01	1	r.gloom	27	7376	6
100113	14:01	1	r.decorate	28	3720	3
100113	14:01	1	r.snob	29	8745	5
100113	14:01	1	r.silly	30	4636	6
100113	14:01	1	r.present	31	7329	3
100113	14:01	1	r.unhappy	32	5288	2
100113	14:01	1	r.air	33	6286	3
100113	14:01	1	r.good	34	3978	4
100113	14:01	1	r.face	35	6097	3
100113	14:01	1	r.anguished	36	13491	4
100113	14:01	1	r.kindness	37	4601	6
100113	14:01	1	r.vampire	38	2608	8
100113	14:01	1	r.kind	39	5869	6
100113	14:01	1	r.shriek	40	3354	2
100113	14:01	1	r.headlight	41	7994	5
100113	14:01	1	r.jelly	42	6193	3
100113	14:01	1	r.vagina	43	3696	4
100113	14:01	1	r.venom	44	4650	7
100113	14:01	1	r.tool	45	7902	5
100113	14:01	1	r.hammer	46	6250	5
100113	14:01	1	r.stress	47	3303	3
100113	14:01	1	r.truck	48	7953	4
100113	14:01	1	r.anger	49	9362	3
100113	14:01	1	r.coarse	50	3500	5
100113	14:01	1	r.deceit	51	5254	7
100113	14:01	1	r.confused	52	6915	5
100113	14:01	1	r.tragedy	53	6117	7
100113	14:01	1	r.material	54	10528	4
100113	14:01	1	r.ink	55	2643	8
100113	14:01	1	r.cockroach	56	6207	4
100113	14:01	1	r.busybody	57	5782	5
100113	14:01	1	r.danger	58	2941	4
100113	14:01	1	r.depressed	59	11029	4
100113	14:01	1	r.clumsy	60	4781	5
100113	14:01	1	f.smope	1	10432	4
100113	14:01	1	f.stobe	2	7495	3
100113	14:01	1	f.frague	3	10258	5
100113	14:01	1	f.thave	4	2456	7
100113	14:01	1	f.fleeg	5	7668	5
100113	14:01	1	f.thwoosh	6	7225	6
100113	14:01	1	f.shrofe	7	3503	3
100113	14:01	1	f.gwathe	8	3985	3
100113	14:01	1	f.spote	9	6544	5
100113	14:01	1	f.greeg	10	3113	2
100113	14:01	1	f.kroosh	11	7818	7
100113	14:01	1	f.zeege	12	3321	6
100113	14:01	1	f.chogue	13	10178	2
100113	14:01	1	f.shroze	14	4187	3
100113	14:01	1	f.plooch	15	3394	1
100113	14:01	1	f.kwoop	16	3145	4
100113	14:01	1	f.smape	17	5904	3
100113	14:01	1	f.breep	18	8348	3
100113	14:01	1	f.twage	19	3709	7
100113	14:01	1	f.dwoot	20	6439	3
100113	14:01	1	f.threem	21	4709	3
100113	14:01	1	f.jooth	22	7766	2
100113	14:01	1	f.gloge	23	5303	4
100113	14:01	1	f.pame	24	4778	5
100113	14:01	1	f.thoon	25	7009	4
100113	14:01	1	f.drofe	26	4256	5
100113	14:01	1	f.preel	27	4908	4
100113	14:01	1	f.pogue	28	7942	6
100113	14:01	1	f.vake	29	4432	6
100113	14:01	1	f.chade	30	9941	7
100113	14:01	1	f.prage	31	4567	4
100113	14:01	1	f.gwashe	32	6398	7
100113	14:01	1	f.gwave	33	2654	3
100113	14:01	1	f.spobe	34	4474	3
100113	14:01	1	f.brashe	35	3950	6
100113	14:01	1	f.floove	36	3158	3
100113	14:01	1	f.neeth	37	5310	4
100113	14:01	1	f.blague	38	5064	6
100113	14:01	1	f.trafe	39	4588	7
100113	14:01	1	f.pathe	40	4899	7
100113	14:01	1	f.stoog	41	2325	3
100113	14:01	1	f.stashe	42	7782	5
100113	14:01	1	f.freef	43	7310	3
100113	14:01	1	f.kwose	44	7033	6
100113	14:01	1	f.flobe	45	6902	4
100113	14:01	1	f.teeve	46	2874	6
100113	14:01	1	f.klofe	47	3989	5
100113	14:01	1	f.dwome	48	4452	4
100113	14:01	1	f.sneem	49	4561	3
100113	14:01	1	f.dwathe	50	2665	4
100113	14:01	1	f.stofe	51	5548	4
100113	14:01	1	f.grache	52	4900	6
100113	14:01	1	f.weeg	53	8199	4
100113	14:01	1	f.treem	54	3918	4
100113	14:01	1	f.gwoove	55	5320	3
100113	14:01	1	f.greech	56	3098	1
100113	14:01	1	f.beeg	57	6044	2
100113	14:01	1	f.gwale	58	2921	6
100113	14:01	1	f.gwoom	59	3563	3
100113	14:01	1	f.freeth	60	9538	5
100113	14:01	1	howtype	1	17283	6
100113	15:19	1	speed	1	3136	55
100113	15:19	1	error	2	2304	83
100113	15:19	1	whichhand	3	6826	right
100113	15:19	1	r.outdoors	1	7268	9
100113	15:19	1	r.tender	2	3033	9
100113	15:19	1	r.pollute	3	2998	1
100113	15:19	1	r.destruction	4	1740	1
100113	15:19	1	r.blackmail	5	1339	1
100113	15:19	1	r.building	6	2628	5
100113	15:19	1	r.sheltered	7	2249	6
100113	15:19	1	r.errand	8	2188	6
100113	15:19	1	r.nature	9	1675	9
100113	15:19	1	r.item	10	2494	5
100113	15:19	1	r.gymnast	11	2504	6
100113	15:19	1	r.field	12	2097	8
100113	15:19	1	r.loneliness	13	1995	1
100113	15:19	1	r.riot	14	3609	1
100113	15:19	1	r.hat	15	4526	6
100113	15:19	1	r.mutilate	16	5639	5
100113	15:19	1	r.stagnant	17	3621	4
100113	15:19	1	r.elegant	18	1771	9
100113	15:19	1	r.lesbian	19	2377	8
100113	15:19	1	r.kitten	20	1407	9
100113	15:19	1	r.controlling	21	1981	1
100113	15:19	1	r.rabies	22	3067	1
100113	15:19	1	r.slaughter	23	1127	1
100113	15:19	1	r.dreary	24	1311	1
100113	15:19	1	r.meek	25	1679	3
100113	15:19	1	r.pie	26	1690	9
100113	15:19	1	r.breast	27	2452	7
100113	15:19	1	r.bunny	28	1672	9
100113	15:19	1	r.sinful	29	1883	2
100113	15:19	1	r.excuse	30	3413	5
100113	15:19	1	r.square	31	1370	5
100113	15:19	1	r.rollercoaster	32	1561	9
100113	15:19	1	r.pus	33	3576	1
100113	15:19	1	r.surprised	34	2343	8
100113	15:19	1	r.material	35	1566	5
100113	15:19	1	r.habit	36	2061	5
100113	15:19	1	r.maggot	37	1760	2
100113	15:19	1	r.history	38	2335	7
100113	15:19	1	r.slush	39	4064	3
100113	15:19	1	r.sleep	40	1483	9
100113	15:19	1	r.illness	41	2541	1
100113	15:19	1	r.utensil	42	3486	5
100113	15:19	1	r.jail	43	2161	1
100113	15:19	1	r.garbage	44	2111	1
100113	15:19	1	r.rifle	45	3577	6
100113	15:19	1	r.overcast	46	1664	2
100113	15:19	1	r.zest	47	2522	6
100113	15:19	1	r.feeble	48	1836	5
100113	15:19	1	r.bastard	49	1752	2
100113	15:19	1	r.tidy	50	2112	8
100113	15:19	1	r.depression	51	1689	1
100113	15:19	1	r.muscular	52	2234	7
100113	15:19	1	r.cute	53	951	7
100113	15:19	1	r.termite	54	1998	1
100113	15:19	1	r.dirty	55	1276	2
100113	15:19	1	r.weary	56	1486	4
100113	15:19	1	r.reunion	57	2296	7
100113	15:19	1	r.ship	58	1474	5
100113	15:19	1	r.idol	59	1869	7
100113	15:19	1	r.ignorance	60	1543	2
100113	15:19	1	f.dwache	1	3247	4
100113	15:19	1	f.thwone	2	2787	3
100113	15:19	1	f.blathe	3	1585	6
100113	15:19	1	f.twoche	4	1888	4
100113	15:19	1	f.jague	5	2610	3
100113	15:19	1	f.drare	6	3135	6
100113	15:19	1	f.noge	7	3808	5
100113	15:19	1	f.shrooze	8	2325	6
100113	15:19	1	f.treech	9	2134	7
100113	15:19	1	f.thwoot	10	1527	4
100113	15:19	1	f.mabe	11	1487	5
100113	15:19	1	f.fleef	12	1657	6
100113	15:19	1	f.snabe	13	3540	3
100113	15:19	1	f.pashe	14	2525	4
100113	15:19	1	f.frage	15	1183	4
100113	15:19	1	f.kweeze	16	1756	5
100113	15:19	1	f.gwake	17	1436	6
100113	15:19	1	f.jofe	18	3928	7
100113	15:19	1	f.dwoze	19	2649	7
100113	15:19	1	f.dweeve	20	1221	5
100113	15:19	1	f.feep	21	1906	5
100113	15:19	1	f.shrafe	22	977	6
100113	15:19	1	f.twooge	23	1753	3
100113	15:19	1	f.moob	24	2401	6
100113	15:19	1	f.dwole	25	2927	6
100113	15:19	1	f.frathe	26	2231	5
100113	15:19	1	f.threel	27	1747	3
100113	15:19	1	f.twove	28	1835	5
100113	15:19	1	f.kleeg	29	2391	7
100113	15:19	1	f.shache	30	2694	2
100113	15:19	1	f.wogue	31	1912	6
100113	15:19	1	f.skoshe	32	2257	7
100113	15:19	1	f.yone	33	2068	5
100113	15:19	1	f.sleer	34	1592	4
100113	15:19	1	f.slose	35	1710	4
100113	15:19	1	f.snoche	36	1415	5
100113	15:19	1	f.voge	37	2227	7
100113	15:19	1	f.thrafe	38	1840	4
100113	15:19	1	f.jobe	39	1915	7
100113	15:19	1	f.sheech	40	1901	6
100113	15:19	1	f.froosh	41	1807	7
100113	15:19	1	f.dwave	42	1644	4
100113	15:19	1	f.kreeb	43	1455	4
100113	15:19	1	f.proke	44	1659	6
100113	15:19	1	f.seesh	45	1254	6
100113	15:19	1	f.speeg	46	1425	4
100113	15:19	1	f.kwoshe	47	1318	4
100113	15:19	1	f.thwoop	48	1399	7
100113	15:19	1	f.shrashe	49	1164	6
100113	15:19	1	f.trome	50	1059	6
100113	15:19	1	f.shroot	51	1623	4
100113	15:19	1	f.thweeth	52	692	4
100113	15:19	1	f.yate	53	1630	7
100113	15:19	1	f.soog	54	1570	6
100113	15:19	1	f.thrashe	55	4040	4
100113	15:19	1	f.plooth	56	3141	6
100113	15:19	1	f.spooth	57	2806	5
100113	15:19	1	f.kleech	58	1548	4
100113	15:19	1	f.slague	59	1539	7
100113	15:19	1	f.ploof	60	1747	6
100113	15:19	1	howtype	1	10346	6
100113	16:03	1	speed	1	4670	47
100113	16:03	1	error	2	2605	93
100113	16:03	1	whichhand	3	9251	right
100113	16:03	1	r.leader	1	7126	7
100113	16:03	1	r.puppy	2	4056	9
100113	16:03	1	r.laughter	3	2349	9
100113	16:03	1	r.seasick	4	2796	1
100113	16:03	1	r.shotgun	5	2410	1
100113	16:03	1	r.contempt	6	4895	5
100113	16:03	1	r.horror	7	2874	4
100113	16:03	1	r.intimate	8	2221	7
100113	16:03	1	r.loser	9	2610	1
100113	16:03	1	r.hurt	10	1575	1
100113	16:03	1	r.concentrate	11	2630	5
100113	16:03	1	r.pride	12	1899	8
100113	16:03	1	r.overcast	13	2356	2
100113	16:03	1	r.dinner	14	2644	6
100113	16:03	1	r.lantern	15	2288	5
100113	16:03	1	r.black	16	1658	5
100113	16:03	1	r.refreshment	17	1990	8
100113	16:03	1	r.decompose	18	3612	2
100113	16:03	1	r.useful	19	2290	9
100113	16:03	1	r.cash	20	1532	9
100113	16:03	1	r.regretful	21	1892	1
100113	16:03	1	r.fatigued	22	1983	1
100113	16:03	1	r.natural	23	2701	6
100113	16:03	1	r.fork	24	2127	5
100113	16:03	1	r.lice	25	1791	1
100113	16:03	1	r.wasp	26	1374	1
100113	16:03	1	r.slaughter	27	1524	1
100113	16:03	1	r.news	28	2445	5
100113	16:03	1	r.serious	29	2561	5
100113	16:03	1	r.glamour	30	1752	7
100113	16:03	1	r.garden	31	1656	5
100113	16:03	1	r.hostage	32	1731	1
100113	16:03	1	r.cruel	33	1203	1
100113	16:03	1	r.waterfall	34	1801	7
100113	16:03	1	r.frustrated	35	2014	1
100113	16:03	1	r.filth	36	2003	1
100113	16:03	1	r.mutation	37	3129	2
100113	16:03	1	r.scorn	38	1658	2
100113	16:03	1	r.engaged	39	2589	7
100113	16:03	1	r.cottage	40	2603	5
100113	16:03	1	r.pillow	41	1881	9
100113	16:03	1	r.meek	42	2532	2
100113	16:03	1	r.wedding	43	2116	9
100113	16:03	1	r.youth	44	1509	9
100113	16:03	1	r.theory	45	2014	8
100113	16:03	1	r.crime	46	1491	1
100113	16:03	1	r.failure	47	1077	1
100113	16:03	1	r.beggar	48	1623	1
100113	16:03	1	r.flag	49	1668	5
100113	16:03	1	r.vehicle	50	1591	9
100113	16:03	1	r.kitten	51	2221	6
100113	16:03	1	r.needle	52	1706	5
100113	16:03	1	r.destruction	53	1820	1
100113	16:03	1	r.exercise	54	1433	7
100113	16:03	1	r.slime	55	1509	2
100113	16:03	1	r.food	56	1614	8
100113	16:03	1	r.car	57	1579	9
100113	16:03	1	r.salad	58	1641	8
100113	16:03	1	r.pleasure	59	3222	9
100113	16:03	1	r.hate	60	1539	1
100113	16:03	1	f.noche	1	8882	2
100113	16:03	1	f.glool	2	3895	2
100113	16:03	1	f.thwage	3	3457	2
100113	16:03	1	f.smoove	4	2486	5
100113	16:03	1	f.tave	5	2208	1
100113	16:03	1	f.thrache	6	1774	1
100113	16:03	1	f.yave	7	2989	1
100113	16:03	1	f.yose	8	2363	1
100113	16:03	1	f.vook	9	2155	1
100113	16:03	1	f.throle	10	2178	1
100113	16:03	1	f.gwoom	11	2833	5
100113	16:03	1	f.vooge	12	2413	2
100113	16:03	1	f.seesh	13	3083	5
100113	16:03	1	f.freesh	14	2261	5
100113	16:03	1	f.kwose	15	1896	2
100113	16:03	1	f.yeeg	16	2634	2
100113	16:03	1	f.jogue	17	2678	2
100113	16:03	1	f.thrake	18	2880	5
100113	16:03	1	f.treem	19	2083	5
100113	16:03	1	f.kwaze	20	2806	5
100113	16:03	1	f.thwothe	21	3187	2
100113	16:03	1	f.glague	22	1882	2
100113	16:03	1	f.twafe	23	2332	2
100113	16:03	1	f.smeep	24	1773	5
100113	16:03	1	f.slool	25	2220	2
100113	16:03	1	f.preech	26	2065	6
100113	16:03	1	f.kwoose	27	2124	2
100113	16:03	1	f.stoose	28	1820	2
100113	16:03	1	f.tooge	29	2354	2
100113	16:03	1	f.snood	30	1490	1
100113	16:03	1	f.smaze	31	1804	5
100113	16:03	1	f.thwoom	32	3273	2
100113	16:03	1	f.thwoof	33	2869	3
100113	16:03	1	f.pobe	34	2256	3
100113	16:03	1	f.swose	35	2164	3
100113	16:03	1	f.shoche	36	3035	2
100113	16:03	1	f.shrove	37	1927	3
100113	16:03	1	f.nafe	38	3112	1
100113	16:03	1	f.kreech	39	2009	1
100113	16:03	1	f.zope	40	2263	2
100113	16:03	1	f.shreeve	41	1850	3
100113	16:03	1	f.throfe	42	1485	3
100113	16:03	1	f.slofe	43	1648	3
100113	16:03	1	f.drabe	44	1883	3
100113	16:03	1	f.fape	45	1933	2
100113	16:03	1	f.shreeze	46	1774	2
100113	16:03	1	f.yoop	47	1916	3
100113	16:03	1	f.thwote	48	1414	2
100113	16:03	1	f.smool	49	1970	2
100113	16:03	1	f.shrooch	50	1929	3
100113	16:03	1	f.joot	51	2378	2
100113	16:03	1	f.sneen	52	1728	2
100113	16:03	1	f.sloshe	53	1360	2
100113	16:03	1	f.broshe	54	1519	2
100113	16:03	1	f.threel	55	1968	2
100113	16:03	1	f.zoche	56	959	1
100113	16:03	1	f.gweet	57	1814	1
100113	16:03	1	f.jeeb	58	1195	2
100113	16:03	1	f.thwave	59	1032	1
100113	16:03	1	f.voosh	60	1156	2
100113	16:03	1	howtype	1	11027	2
100213	11:56	1	speed	1	4192	37
100213	11:56	1	error	2	3009	89
100213	11:56	1	whichhand	3	9093	right
100213	11:56	1	r.hardship	1	4839	4
100213	11:56	1	r.adorable	2	3940	7
100213	11:56	1	r.glory	3	3933	9
100213	11:56	1	r.tower	4	2718	4
100213	11:56	1	r.devoted	5	3119	5
100213	11:56	1	r.garment	6	5912	3
100213	11:56	1	r.mutilate	7	3994	1
100213	11:56	1	r.office	8	2169	5
100213	11:56	1	r.intimate	9	2584	7
100213	11:56	1	r.book	10	2302	5
100213	11:56	1	r.color	11	6432	5
100213	11:56	1	r.headache	12	2662	3
100213	11:56	1	r.bathroom	13	2689	4
100213	11:56	1	r.movie	14	2107	6
100213	11:56	1	r.serious	15	4037	2
100213	11:56	1	r.guillotine	16	3538	2
100213	11:56	1	r.farm	17	1723	6
100213	11:56	1	r.treasure	18	2244	7
100213	11:56	1	r.finger	19	2000	5
100213	11:56	1	r.breast	20	3165	5
100213	11:56	1	r.locker	21	1605	5
100213	11:56	1	r.mildew	22	4355	5
100213	11:56	1	r.bandage	23	1802	3
100213	11:56	1	r.clouds	24	2880	7
100213	11:56	1	r.infant	25	2251	8
100213	11:56	1	r.debt	26	2230	2
100213	11:56	1	r.adult	27	1299	5
100213	11:56	1	r.bloody	28	2244	1
100213	11:56	1	r.lantern	29	2552	5
100213	11:56	1	r.slap	30	6664	5
100213	11:56	1	r.lamp	31	1260	5
100213	11:56	1	r.absurd	32	3335	4
100213	11:56	1	r.slum	33	4552	3
100213	11:56	1	r.glass	34	10976	5
100213	11:56	1	r.ink	35	5377	5
100213	11:56	1	r.acceptance	36	3425	7
100213	11:56	1	r.stove	37	1534	5
100213	11:56	1	r.innocent	38	2142	6
100213	11:56	1	r.death	39	1711	1
100213	11:56	1	r.scissors	40	3551	5
100213	11:56	1	r.detest	41	5592	6
100213	11:56	1	r.nurse	42	1854	6
100213	11:56	1	r.people	43	1186	5
100213	11:56	1	r.scornful	44	3312	3
100213	11:56	1	r.malaria	45	3169	3
100213	11:56	1	r.game	46	6153	6
100213	11:56	1	r.kindness	47	1682	8
100213	11:56	1	r.salad	48	1252	5
100213	11:56	1	r.confident	49	3759	9
100213	11:56	1	r.cute	50	1391	9
100213	11:56	1	r.venom	51	1549	2
100213	11:56	1	r.cane	52	1589	4
100213	11:56	1	r.field	53	1891	6
100213	11:56	1	r.desire	54	2933	6
100213	11:56	1	r.radio	55	4645	5
100213	11:56	1	r.lightbulb	56	2626	5
100213	11:56	1	r.child	57	2375	5
100213	11:56	1	r.appliance	58	2838	6
100213	11:56	1	r.jelly	59	7178	6
100213	11:56	1	r.secure	60	9402	8
100213	11:56	1	f.thwale	1	2462	2
100213	11:56	1	f.smaze	2	3241	7
100213	11:56	1	f.yooze	3	1621	6
100213	11:56	1	f.sneese	4	3314	3
100213	11:56	1	f.veesh	5	2748	2
100213	11:56	1	f.jabe	6	2363	3
100213	11:56	1	f.steef	7	2403	5
100213	11:56	1	f.koog	8	2360	6
100213	11:56	1	f.voove	9	3967	4
100213	11:56	1	f.smashe	10	9495	3
100213	11:56	1	f.swoose	11	2435	7
100213	11:56	1	f.thrape	12	1967	4
100213	11:56	1	f.jague	13	1806	3
100213	11:56	1	f.trofe	14	1332	5
100213	11:56	1	f.snoche	15	5956	5
100213	11:56	1	f.soche	16	3837	4
100213	11:56	1	f.thweese	17	5010	6
100213	11:56	1	f.zeek	18	2016	7
100213	11:56	1	f.lale	19	6845	5
100213	11:56	1	f.snooch	20	2802	8
100213	11:56	1	f.dreeth	21	1584	1
100213	11:56	1	f.swabe	22	1598	5
100213	11:56	1	f.teege	23	3716	7
100213	11:56	1	f.zote	24	3253	5
100213	11:56	1	f.speesh	25	4361	4
100213	11:56	1	f.zooge	26	3817	5
100213	11:56	1	f.veek	27	2934	2
100213	11:56	1	f.shreege	28	2215	4
100213	11:56	1	f.foche	29	2732	5
100213	11:56	1	f.moof	30	5276	5
100213	11:56	1	f.nafe	31	7888	6
100213	11:56	1	f.gware	32	4596	3
100213	11:56	1	f.glooch	33	2923	3
100213	11:56	1	f.voof	34	2628	7
100213	11:56	1	f.kweem	35	3240	5
100213	11:56	1	f.snane	36	3213	4
100213	11:56	1	f.doob	37	4315	6
100213	11:56	1	f.glage	38	3868	7
100213	11:56	1	f.swove	39	5152	5
100213	11:56	1	f.shreeg	40	11192	4
100213	11:56	1	f.sheeg	41	1497	4
100213	11:56	1	f.twooge	42	8858	5
100213	11:56	1	f.gwope	43	3342	2
100213	11:56	1	f.dwool	44	6136	3
100213	11:56	1	f.thwooth	45	5129	5
100213	11:56	1	f.dware	46	5003	3
100213	11:56	1	f.kroshe	47	1793	5
100213	11:56	1	f.smofe	48	2310	2
100213	11:56	1	f.nague	49	4360	4
100213	11:56	1	f.smoshe	50	4311	7
100213	11:56	1	f.sleech	51	4929	6
100213	11:56	1	f.froche	52	1362	5
100213	11:56	1	f.kroge	53	1817	4
100213	11:56	1	f.thate	54	5846	3
100213	11:56	1	f.spove	55	4147	5
100213	11:56	1	f.swoog	56	4802	4
100213	11:56	1	f.dweet	57	2434	8
100213	11:56	1	f.kwade	58	5734	5
100213	11:56	1	f.plool	59	2567	7
100213	11:56	1	f.drathe	60	1911	2
100213	11:56	1	howtype	1	10014	4
100213	12:25	1	speed	1	8887	36
100213	12:25	1	error	2	3333	94
100213	12:25	1	whichhand	3	8463	right
100213	12:25	1	f.thoot	1	9830	5
100213	12:25	1	f.pome	2	8135	7
100213	12:25	1	f.krashe	3	4578	1
100213	12:25	1	f.dwode	4	12721	5
100213	12:25	1	f.grore	5	4221	3
100213	12:25	1	f.feep	6	3867	6
100213	12:25	1	f.kwope	7	2742	4
100213	12:25	1	f.threeth	8	4910	7
100213	12:25	1	f.tooge	9	2977	5
100213	12:25	1	f.dwoose	10	4335	6
100213	12:25	1	f.dooch	11	2816	1
100213	12:25	1	f.sweel	12	3709	4
100213	12:25	1	f.dafe	13	3989	9
100213	12:25	1	f.trague	14	2997	4
100213	12:25	1	f.thweeth	15	2900	7
100213	12:25	1	f.speet	16	3221	8
100213	12:25	1	f.twoove	17	3027	6
100213	12:25	1	f.skothe	18	3255	4
100213	12:25	1	f.thwoot	19	3347	6
100213	12:25	1	f.skoob	20	3180	8
100213	12:25	1	f.shroot	21	4889	5
100213	12:25	1	f.droose	22	3413	5
100213	12:25	1	f.krare	23	8651	6
100213	12:25	1	f.mothe	24	4688	6
100213	12:25	1	f.brashe	25	4692	6
100213	12:25	1	f.vooge	26	7366	4
100213	12:25	1	f.snoof	27	1967	5
100213	12:25	1	f.smoze	28	9342	5
100213	12:25	1	f.bleeth	29	3336	4
100213	12:25	1	f.dwore	30	5745	3
100213	12:25	1	f.sweeze	31	4137	8
100213	12:25	1	f.gleel	32	3650	8
100213	12:25	1	f.nooch	33	3311	2
100213	12:25	1	f.skook	34	6472	5
100213	12:25	1	f.lool	35	2269	9
100213	12:25	1	f.skafe	36	16039	5
100213	12:25	1	f.thoche	37	6686	4
100213	12:25	1	f.shrose	38	3396	8
100213	12:25	1	f.treef	39	4434	7
100213	12:25	1	f.klool	40	3743	7
100213	12:25	1	f.thoke	41	3246	3
100213	12:25	1	f.kwabe	42	4419	5
100213	12:25	1	f.gwome	43	4249	6
100213	12:25	1	f.kleesh	44	4140	5
100213	12:25	1	f.brore	45	3046	2
100213	12:25	1	f.dreef	46	6034	7
100213	12:25	1	f.plook	47	3519	9
100213	12:25	1	f.chathe	48	8233	3
100213	12:25	1	f.sweese	49	3991	9
100213	12:25	1	f.twoshe	50	7214	4
100213	12:25	1	f.krafe	51	5788	5
100213	12:25	1	f.gwobe	52	8628	6
100213	12:25	1	f.frage	53	3187	7
100213	12:25	1	f.zeege	54	3546	5
100213	12:25	1	f.slase	55	4656	3
100213	12:25	1	f.yeep	56	2886	8
100213	12:25	1	f.snoche	57	3177	5
100213	12:25	1	f.ploche	58	4567	5
100213	12:25	1	f.swogue	59	4503	5
100213	12:25	1	f.droche	60	3770	6
100213	12:25	1	r.hand	1	7876	5
100213	12:25	1	r.prestige	2	3831	8
100213	12:25	1	r.stench	3	2652	1
100213	12:25	1	r.wife	4	2345	9
100213	12:25	1	r.doll	5	2864	8
100213	12:25	1	r.chair	6	2044	5
100213	12:25	1	r.elevator	7	3703	4
100213	12:25	1	r.stiff	8	5049	3
100213	12:25	1	r.snuggle	9	2238	9
100213	12:25	1	r.admired	10	1667	9
100213	12:25	1	r.mother	11	2453	9
100213	12:25	1	r.crown	12	4202	8
100213	12:25	1	r.charm	13	1896	9
100213	12:25	1	r.event	14	3577	7
100213	12:25	1	r.mad	15	2584	1
100213	12:25	1	r.resent	16	3423	1
100213	12:25	1	r.seasick	17	7428	1
100213	12:25	1	r.book	18	3170	5
100213	12:25	1	r.present	19	4610	9
100213	12:25	1	r.mildew	20	2527	1
100213	12:25	1	r.dirt	21	3312	3
100213	12:25	1	r.idol	22	3569	7
100213	12:25	1	r.busybody	23	5321	5
100213	12:25	1	r.corridor	24	5235	5
100213	12:25	1	r.abortion	25	2408	1
100213	12:25	1	r.embattled	26	6206	3
100213	12:25	1	r.wicked	27	3045	1
100213	12:25	1	r.inferior	28	2673	1
100213	12:25	1	r.radiant	29	2060	9
100213	12:25	1	r.skeptical	30	4719	8
100213	12:25	1	r.helpless	31	11161	1
100213	12:25	1	r.millionaire	32	5002	8
100213	12:25	1	r.scapegoat	33	3449	3
100213	12:25	1	r.bastard	34	2132	1
100213	12:25	1	r.insult	35	2197	1
100213	12:25	1	r.lust	36	3891	8
100213	12:25	1	r.manure	37	3350	1
100213	12:25	1	r.cruel	38	1662	1
100213	12:25	1	r.hit	39	5434	2
100213	12:25	1	r.hurricane	40	4174	2
100213	12:25	1	r.butterfly	41	2774	6
100213	12:25	1	r.gripe	42	3102	1
100213	12:25	1	r.scum	43	1848	1
100213	12:25	1	r.bored	44	3883	2
100213	12:25	1	r.moment	45	3101	5
100213	12:25	1	r.ship	46	8128	6
100213	12:25	1	r.glamour	47	6578	9
100213	12:25	1	r.board	48	6730	4
100213	12:25	1	r.alert	49	4116	4
100213	12:25	1	r.passage	50	3324	5
100213	12:25	1	r.wise	51	7566	8
100213	12:25	1	r.sexy	52	2303	9
100213	12:25	1	r.hardship	53	2737	1
100213	12:25	1	r.daylight	54	2641	8
100213	12:25	1	r.gymnast	55	2398	7
100213	12:25	1	r.bliss	56	2027	8
100213	12:25	1	r.execution	57	2128	1
100213	12:25	1	r.damage	58	3409	1
100213	12:25	1	r.iron	59	2527	5
100213	12:25	1	r.insolent	60	5071	5
100213	12:25	1	howtype	1	20850	4
100213	13:31	1	speed	1	4500	57
100213	13:31	1	error	2	3081	100
100213	13:31	1	whichhand	3	5724	right
100213	13:31	1	r.errand	1	17833	4
100213	13:31	1	r.sickness	2	4011	1
100213	13:31	1	r.hawk	3	3280	5
100213	13:31	1	r.soothe	4	3403	7
100213	13:31	1	r.fame	5	3377	8
100213	13:31	1	r.grass	6	4800	5
100213	13:31	1	r.mother	7	4342	8
100213	13:31	1	r.reptile	8	2423	5
100213	13:31	1	r.injury	9	3588	3
100213	13:31	1	r.unhappy	10	6027	4
100213	13:31	1	r.scissors	11	2576	5
100213	13:31	1	r.exercise	12	4887	5
100213	13:31	1	r.putrid	13	3562	5
100213	13:31	1	r.abundance	14	7657	8
100213	13:31	1	r.bless	15	2982	7
100213	13:31	1	r.fragrance	16	3413	6
100213	13:31	1	r.honest	17	3130	9
100213	13:31	1	r.option	18	2867	6
100213	13:31	1	r.tomb	19	3662	3
100213	13:31	1	r.nonsense	20	3274	5
100213	13:31	1	r.dancer	21	4965	6
100213	13:31	1	r.habit	22	5229	4
100213	13:31	1	r.vomit	23	1779	1
100213	13:31	1	r.house	24	4073	8
100213	13:31	1	r.treat	25	2476	5
100213	13:31	1	r.confused	26	3735	4
100213	13:31	1	r.travel	27	2808	8
100213	13:31	1	r.tease	28	3918	4
100213	13:31	1	r.cell	29	4559	2
100213	13:31	1	r.toy	30	2351	8
100213	13:31	1	r.city	31	6262	4
100213	13:31	1	r.greet	32	4043	4
100213	13:31	1	r.church	33	4389	9
100213	13:31	1	r.rough	34	6372	5
100213	13:31	1	r.disturb	35	1741	4
100213	13:31	1	r.mighty	36	4957	7
100213	13:31	1	r.cash	37	2701	9
100213	13:31	1	r.rock	38	1423	5
100213	13:31	1	r.masterful	39	1924	6
100213	13:31	1	r.silk	40	1269	5
100213	13:31	1	r.book	41	840	5
100213	13:31	1	r.opinion	42	3372	5
100213	13:31	1	r.treasure	43	2043	7
100213	13:31	1	r.consoled	44	1543	5
100213	13:31	1	r.illness	45	1454	1
100213	13:31	1	r.neurotic	46	1034	5
100213	13:31	1	r.tornado	47	1670	2
100213	13:31	1	r.afraid	48	1465	2
100213	13:31	1	r.friend	49	1644	8
100213	13:31	1	r.glory	50	1895	7
100213	13:31	1	r.riot	51	1481	3
100213	13:31	1	r.timid	52	1875	5
100213	13:31	1	r.vigorous	53	2062	3
100213	13:31	1	r.dump	54	1961	5
100213	13:31	1	r.garment	55	1152	5
100213	13:31	1	r.natural	56	2159	5
100213	13:31	1	r.market	57	1518	5
100213	13:31	1	r.puppy	58	1855	8
100213	13:31	1	r.cyclone	59	1763	2
100213	13:31	1	r.execution	60	1977	1
100213	13:31	1	f.yoze	1	4226	5
100213	13:31	1	f.twoof	2	1439	5
100213	13:31	1	f.sleeg	3	2532	4
100213	13:31	1	f.voosh	4	3804	3
100213	13:31	1	f.jome	5	1466	5
100213	13:31	1	f.stoosh	6	2461	5
100213	13:31	1	f.dwashe	7	2008	5
100213	13:31	1	f.toog	8	2214	5
100213	13:31	1	f.smooge	9	5251	6
100213	13:31	1	f.kwooge	10	6047	5
100213	13:31	1	f.stoose	11	4596	5
100213	13:31	1	f.thweech	12	2227	3
100213	13:31	1	f.flooch	13	2527	5
100213	13:31	1	f.gweem	14	2472	5
100213	13:31	1	f.thwoon	15	2714	5
100213	13:31	1	f.gwole	16	2588	5
100213	13:31	1	f.veed	17	3123	5
100213	13:31	1	f.thwoom	18	2908	5
100213	13:31	1	f.klool	19	1750	8
100213	13:31	1	f.sneeb	20	1941	5
100213	13:31	1	f.gleek	21	4710	7
100213	13:31	1	f.twage	22	2632	6
100213	13:31	1	f.sneesh	23	1828	3
100213	13:31	1	f.frathe	24	1440	5
100213	13:31	1	f.twoge	25	709	5
100213	13:31	1	f.sneed	26	1878	5
100213	13:31	1	f.plole	27	1352	5
100213	13:31	1	f.dwook	28	952	5
100213	13:31	1	f.threek	29	2935	5
100213	13:31	1	f.smeeve	30	2239	5
100213	13:31	1	f.broog	31	980	5
100213	13:31	1	f.slogue	32	2098	4
100213	13:31	1	f.treem	33	1739	5
100213	13:31	1	f.swoove	34	1628	5
100213	13:31	1	f.zoog	35	3632	3
100213	13:31	1	f.zoot	36	957	3
100213	13:31	1	f.breeth	37	2172	8
100213	13:31	1	f.kweem	38	1259	5
100213	13:31	1	f.klooch	39	783	5
100213	13:31	1	f.brooge	40	2324	5
100213	13:31	1	f.slare	41	4837	4
100213	13:31	1	f.shoog	42	1339	5
100213	13:31	1	f.yeech	43	1642	6
100213	13:31	1	f.cheeth	44	2206	5
100213	13:31	1	f.shose	45	2412	5
100213	13:31	1	f.krooge	46	1985	5
100213	13:31	1	f.sweege	47	2727	5
100213	13:31	1	f.threech	48	2456	5
100213	13:31	1	f.flofe	49	2596	7
100213	13:31	1	f.choom	50	4593	6
100213	13:31	1	f.skoob	51	2341	7
100213	13:31	1	f.lool	52	1848	9
100213	13:31	1	f.gweeth	53	1194	5
100213	13:31	1	f.thashe	54	2361	3
100213	13:31	1	f.jafe	55	1160	5
100213	13:31	1	f.skeese	56	1135	5
100213	13:31	1	f.kroshe	57	903	5
100213	13:31	1	f.zoshe	58	3040	5
100213	13:31	1	f.gwade	59	1373	5
100213	13:31	1	f.gweep	60	1595	5
100213	13:31	1	howtype	1	14447	6
100213	14:00	2	speed	1	3168	42
100213	14:00	2	error	2	3136	85
100213	14:00	2	whichhand	3	11921	right
100213	14:00	2	f.shreer	1	12663	7
100213	14:00	2	f.chogue	2	4527	6
100213	14:00	2	f.yoshe	3	2112	4
100213	14:00	2	f.skooge	4	1905	5
100213	14:00	2	f.flope	5	5043	8
100213	14:00	2	f.freeve	6	1886	6
100213	14:00	2	f.klade	7	2450	8
100213	14:00	2	f.troke	8	4725	7
100213	14:00	2	f.jafe	9	1903	8
100213	14:00	2	f.dwooth	10	3128	4
100213	14:00	2	f.flabe	11	2872	7
100213	14:00	2	f.gwooge	12	3835	3
100213	14:00	2	f.snoche	13	1608	6
100213	14:00	2	f.spoge	14	2534	7
100213	14:00	2	f.vobe	15	2223	8
100213	14:00	2	f.jabe	16	1964	7
100213	14:00	2	f.brooge	17	5698	7
100213	14:00	2	f.jashe	18	1525	7
100213	14:00	2	f.blooge	19	1591	7
100213	14:00	2	f.flooth	20	1196	6
100213	14:00	2	f.throop	21	3066	7
100213	14:00	2	f.floog	22	4301	7
100213	14:00	2	f.zate	23	1984	8
100213	14:00	2	f.throof	24	2934	5
100213	14:00	2	f.kweeze	25	1510	3
100213	14:00	2	f.veed	26	1975	6
100213	14:00	2	f.thote	27	2054	7
100213	14:00	2	f.prape	28	1346	7
100213	14:00	2	f.pleeth	29	1785	6
100213	14:00	2	f.floove	30	1896	7
100213	14:00	2	f.gwake	31	2073	4
100213	14:00	2	f.jeem	32	1692	8
100213	14:00	2	f.twooch	33	2878	5
100213	14:00	2	f.swove	34	1801	7
100213	14:00	2	f.smood	35	1518	6
100213	14:00	2	f.thwoche	36	2351	2
100213	14:00	2	f.gwook	37	1447	3
100213	14:00	2	f.tweese	38	1891	5
100213	14:00	2	f.droose	39	3389	5
100213	14:00	2	f.slobe	40	1220	7
100213	14:00	2	f.theep	41	1504	6
100213	14:00	2	f.smoop	42	1146	6
100213	14:00	2	f.smale	43	1816	7
100213	14:00	2	f.zote	44	1566	8
100213	14:00	2	f.chobe	45	2277	7
100213	14:00	2	f.thrafe	46	2615	6
100213	14:00	2	f.neeb	47	1645	8
100213	14:00	2	f.boshe	48	2272	6
100213	14:00	2	f.dweer	49	1323	6
100213	14:00	2	f.threeb	50	1476	5
100213	14:00	2	f.teege	51	4774	5
100213	14:00	2	f.dwame	52	1334	6
100213	14:00	2	f.slood	53	1877	7
100213	14:00	2	f.shrale	54	2169	5
100213	14:00	2	f.bloosh	55	2639	5
100213	14:00	2	f.tave	56	2268	8
100213	14:00	2	f.seeg	57	2263	9
100213	14:00	2	f.skeek	58	1466	7
100213	14:00	2	f.smeeve	59	2549	7
100213	14:00	2	f.dwoor	60	1245	6
100213	14:00	2	r.neglect	1	16401	2
100213	14:00	2	r.gossip	2	2796	3
100213	14:00	2	r.mantel	3	1882	5
100213	14:00	2	r.bath	4	3668	7
100213	14:00	2	r.color	5	4544	7
100213	14:00	2	r.windmill	6	2680	5
100213	14:00	2	r.mad	7	4387	1
100213	14:00	2	r.tomb	8	3642	6
100213	14:00	2	r.kiss	9	2551	9
100213	14:00	2	r.delayed	10	3982	4
100213	14:00	2	r.kindness	11	2997	9
100213	14:00	2	r.cruel	12	1836	1
100213	14:00	2	r.paint	13	1959	5
100213	14:00	2	r.terrific	14	2263	8
100213	14:00	2	r.terrified	15	3698	3
100213	14:00	2	r.flabby	16	2860	5
100213	14:00	2	r.flag	17	2127	6
100213	14:00	2	r.daylight	18	1383	7
100213	14:00	2	r.thoughtful	19	1453	7
100213	14:00	2	r.disgusted	20	2824	2
100213	14:00	2	r.offend	21	2709	2
100213	14:00	2	r.peace	22	5063	7
100213	14:00	2	r.unfaithful	23	1340	3
100213	14:00	2	r.reward	24	4347	7
100213	14:00	2	r.cat	25	2164	8
100213	14:00	2	r.kids	26	1627	7
100213	14:00	2	r.hard	27	2502	4
100213	14:00	2	r.millionaire	28	1880	8
100213	14:00	2	r.filth	29	3346	2
100213	14:00	2	r.masturbate	30	4218	2
100213	14:00	2	r.destroy	31	2935	3
100213	14:00	2	r.dirt	32	2568	5
100213	14:00	2	r.hope	33	1728	7
100213	14:00	2	r.poverty	34	1624	3
100213	14:00	2	r.seat	35	2453	5
100213	14:00	2	r.gymnast	36	1177	5
100213	14:00	2	r.voyage	37	1471	5
100213	14:00	2	r.museum	38	3632	6
100213	14:00	2	r.avenue	39	1926	5
100213	14:00	2	r.beauty	40	1431	7
100213	14:00	2	r.rollercoaster	41	1947	8
100213	14:00	2	r.dancer	42	1451	7
100213	14:00	2	r.breeze	43	1454	7
100213	14:00	2	r.locker	44	2594	5
100213	14:00	2	r.ambition	45	1271	7
100213	14:00	2	r.cuddle	46	1634	8
100213	14:00	2	r.strong	47	1509	7
100213	14:00	2	r.triumphant	48	1599	9
100213	14:00	2	r.avalanche	49	2981	4
100213	14:00	2	r.tornado	50	1731	3
100213	14:00	2	r.confused	51	1524	4
100213	14:00	2	r.swimmer	52	1308	5
100213	14:00	2	r.wagon	53	1222	5
100213	14:00	2	r.noose	54	1779	5
100213	14:00	2	r.dustpan	55	1800	5
100213	14:00	2	r.trash	56	1551	4
100213	14:00	2	r.snuggle	57	2998	6
100213	14:00	2	r.carcass	58	4620	4
100213	14:00	2	r.loneliness	59	1730	3
100213	14:00	2	r.contents	60	2290	5
100213	14:00	2	howtype	1	14811	6
100213	14:24	3	speed	1	2948	35
100213	14:24	3	error	2	2432	97
100213	14:24	3	whichhand	3	11662	Right
100213	14:24	3	r.windmill	1	5682	5
100213	14:24	3	r.sunlight	2	2421	7
100213	14:24	3	r.orchestra	3	2443	7
100213	14:24	3	r.punishment	4	1983	2
100213	14:24	3	r.stupid	5	2182	1
100213	14:24	3	r.respectful	6	1580	7
100213	14:24	3	r.dollar	7	4506	7
100213	14:24	3	r.sweetheart	8	2580	9
100213	14:24	3	r.storm	9	2299	8
100213	14:24	3	r.dove	10	1628	8
100213	14:24	3	r.vision	11	2425	7
100213	14:24	3	r.chaos	12	2342	4
100213	14:24	3	r.narcotic	13	2150	1
100213	14:24	3	r.youth	14	1974	8
100213	14:24	3	r.bastard	15	1821	1
100213	14:24	3	r.chair	16	2346	7
100213	14:24	3	r.lottery	17	2681	7
100213	14:24	3	r.sugar	18	2436	7
100213	14:24	3	r.pancakes	19	1769	3
100213	14:24	3	r.bullet	20	1975	1
100213	14:24	3	r.broken	21	1486	1
100213	14:24	3	r.tidy	22	1729	9
100213	14:24	3	r.heal	23	1257	9
100213	14:24	3	r.blue	24	1349	8
100213	14:24	3	r.nonsense	25	2444	3
100213	14:24	3	r.elegant	26	1592	9
100213	14:24	3	r.robber	27	1478	1
100213	14:24	3	r.listless	28	2504	5
100213	14:24	3	r.highway	29	3145	8
100213	14:24	3	r.fascinate	30	1658	9
100213	14:24	3	r.treat	31	5733	8
100213	14:24	3	r.insane	32	1303	4
100213	14:24	3	r.hopeful	33	1823	8
100213	14:24	3	r.bus	34	9301	2
100213	14:24	3	r.peace	35	1425	9
100213	14:24	3	r.egg	36	2454	2
100213	14:24	3	r.foul	37	1530	1
100213	14:24	3	r.custom	38	2825	8
100213	14:24	3	r.handicap	39	1326	3
100213	14:24	3	r.glass	40	2134	8
100213	14:24	3	r.soothe	41	1479	9
100213	14:24	3	r.blond	42	2993	1
100213	14:24	3	r.kiss	43	2303	9
100213	14:24	3	r.ambition	44	4569	9
100213	14:24	3	r.applause	45	1816	9
100213	14:24	3	r.milk	46	1787	1
100213	14:24	3	r.alien	47	2721	5
100213	14:24	3	r.chin	48	3091	5
100213	14:24	3	r.burn	49	1511	1
100213	14:24	3	r.dustpan	50	2855	5
100213	14:24	3	r.comedy	51	2515	8
100213	14:24	3	r.pizza	52	3404	7
100213	14:24	3	r.smooth	53	1554	9
100213	14:24	3	r.intimate	54	1961	9
100213	14:24	3	r.trash	55	7335	1
100213	14:24	3	r.kick	56	2835	3
100213	14:24	3	r.circle	57	3000	7
100213	14:24	3	r.whore	58	1678	1
100213	14:24	3	r.ignorance	59	1472	1
100213	14:24	3	r.travel	60	2858	9
100213	14:24	3	f.plache	1	5744	4
100213	14:24	3	f.shroom	2	1976	1
100213	14:24	3	f.noge	3	3502	2
100213	14:24	3	f.brobe	4	3114	4
100213	14:24	3	f.voove	5	2075	6
100213	14:24	3	f.smeege	6	1837	6
100213	14:24	3	f.gooth	7	3105	5
100213	14:24	3	f.kweeg	8	947	5
100213	14:24	3	f.fogue	9	1930	7
100213	14:24	3	f.thwape	10	1810	9
100213	14:24	3	f.preek	11	2262	5
100213	14:24	3	f.proosh	12	1474	9
100213	14:24	3	f.sneesh	13	2221	6
100213	14:24	3	f.tashe	14	1634	4
100213	14:24	3	f.slooge	15	1824	1
100213	14:24	3	f.thole	16	1268	1
100213	14:24	3	f.breep	17	5142	5
100213	14:24	3	f.gleeg	18	887	5
100213	14:24	3	f.blooge	19	985	5
100213	14:24	3	f.foog	20	3447	5
100213	14:24	3	f.grage	21	2131	1
100213	14:24	3	f.lool	22	1788	9
100213	14:24	3	f.thwoof	23	4010	5
100213	14:24	3	f.thape	24	1039	4
100213	14:24	3	f.floop	25	4188	8
100213	14:24	3	f.spope	26	5050	4
100213	14:24	3	f.thrake	27	2238	1
100213	14:24	3	f.sweeve	28	1908	9
100213	14:24	3	f.fooch	29	1085	8
100213	14:24	3	f.boosh	30	936	5
100213	14:24	3	f.fape	31	2112	8
100213	14:24	3	f.gwoche	32	1624	1
100213	14:24	3	f.fleeve	33	2990	6
100213	14:24	3	f.klabe	34	1820	7
100213	14:24	3	f.loshe	35	1930	2
100213	14:24	3	f.floge	36	1377	2
100213	14:24	3	f.throob	37	2016	2
100213	14:24	3	f.zeep	38	2740	8
100213	14:24	3	f.prape	39	1021	4
100213	14:24	3	f.glooth	40	1946	1
100213	14:24	3	f.swoose	41	1586	8
100213	14:24	3	f.teege	42	1782	6
100213	14:24	3	f.gwook	43	2685	3
100213	14:24	3	f.broosh	44	992	2
100213	14:24	3	f.glafe	45	1021	4
100213	14:24	3	f.kroog	46	2930	7
100213	14:24	3	f.yeese	47	1179	8
100213	14:24	3	f.zeech	48	1786	4
100213	14:24	3	f.kwade	49	935	5
100213	14:24	3	f.jeech	50	1104	6
100213	14:24	3	f.neege	51	1465	2
100213	14:24	3	f.fobe	52	1868	3
100213	14:24	3	f.plove	53	1399	4
100213	14:24	3	f.thweef	54	1268	1
100213	14:24	3	f.frage	55	1798	3
100213	14:24	3	f.slool	56	1772	9
100213	14:24	3	f.dwool	57	2339	4
100213	14:24	3	f.thwome	58	1851	1
100213	14:24	3	f.thweep	59	1192	1
100213	14:24	3	f.froge	60	1870	7
100213	14:24	3	howtype	1	10015	7
100213	15:34	1	speed	1	2767	44
100213	15:34	1	error	2	2238	88
100213	15:34	1	whichhand	3	7875	right hand
100213	15:34	1	r.suspicious	1	7978	8
100213	15:34	1	r.gripe	2	11145	4
100213	15:34	1	r.butterfly	3	10932	7
100213	15:34	1	r.selfish	4	7776	1
100213	15:34	1	r.germs	5	7365	5
100213	15:34	1	r.hinder	6	2559	5
100213	15:34	1	r.journal	7	5638	4
100213	15:34	1	r.locker	8	3987	5
100213	15:34	1	r.orchestra	9	6418	6
100213	15:34	1	r.coffin	10	2736	5
100213	15:34	1	r.satisfied	11	1386	9
100213	15:34	1	r.dirt	12	2999	4
100213	15:34	1	r.alert	13	3613	1
100213	15:34	1	r.achievement	14	1411	9
100213	15:34	1	r.overcast	15	1792	5
100213	15:34	1	r.robber	16	1102	5
100213	15:34	1	r.lump	17	712	5
100213	15:34	1	r.miracle	18	3576	9
100213	15:34	1	r.prison	19	1287	1
100213	15:34	1	r.toothache	20	2345	1
100213	15:34	1	r.writer	21	1592	5
100213	15:34	1	r.loser	22	1470	1
100213	15:34	1	r.city	23	4201	7
100213	15:34	1	r.scum	24	1215	5
100213	15:34	1	r.overwhelmed	25	2148	5
100213	15:34	1	r.diver	26	883	5
100213	15:34	1	r.distressed	27	3198	6
100213	15:34	1	r.paralysis	28	1900	2
100213	15:34	1	r.valentine	29	1421	8
100213	15:34	1	r.massacre	30	2394	1
100213	15:34	1	r.foam	31	3016	5
100213	15:34	1	r.frog	32	3966	4
100213	15:34	1	r.nurse	33	2365	8
100213	15:34	1	r.cake	34	1756	9
100213	15:34	1	r.nice	35	1042	9
100213	15:34	1	r.name	36	1247	5
100213	15:34	1	r.lucky	37	1594	8
100213	15:34	1	r.elevator	38	2831	5
100213	15:34	1	r.mother	39	3948	8
100213	15:34	1	r.fat	40	2828	4
100213	15:34	1	r.pizza	41	3784	7
100213	15:34	1	r.erotic	42	1376	8
100213	15:34	1	r.hurt	43	5638	3
100213	15:34	1	r.cuddle	44	1308	5
100213	15:34	1	r.cut	45	2509	3
100213	15:34	1	r.quiet	46	3030	4
100213	15:34	1	r.betray	47	1499	5
100213	15:34	1	r.kerchief	48	885	5
100213	15:34	1	r.embattled	49	574	5
100213	15:34	1	r.trophy	50	1085	9
100213	15:34	1	r.wise	51	727	5
100213	15:34	1	r.anxious	52	3111	3
100213	15:34	1	r.basket	53	4559	7
100213	15:34	1	r.flirt	54	1431	9
100213	15:34	1	r.jelly	55	1828	6
100213	15:34	1	r.loneliness	56	2648	2
100213	15:34	1	r.immature	57	1620	1
100213	15:34	1	r.health	58	4841	9
100213	15:34	1	r.progress	59	2278	9
100213	15:34	1	r.termite	60	1769	5
100213	15:34	1	f.treek	1	2441	5
100213	15:34	1	f.sleese	2	893	5
100213	15:34	1	f.zoshe	3	671	5
100213	15:34	1	f.sheege	4	552	5
100213	15:34	1	f.groor	5	400	5
100213	15:34	1	f.fleeth	6	846	5
100213	15:34	1	f.kroob	7	529	5
100213	15:34	1	f.thwool	8	545	5
100213	15:34	1	f.thole	9	432	5
100213	15:34	1	f.zoop	10	4443	8
100213	15:34	1	f.smeel	11	5720	3
100213	15:34	1	f.zote	12	1906	5
100213	15:34	1	f.thwoog	13	3051	4
100213	15:34	1	f.throof	14	1279	4
100213	15:34	1	f.zeeb	15	2041	5
100213	15:34	1	f.speeg	16	2502	7
100213	15:34	1	f.gleek	17	1488	7
100213	15:34	1	f.floob	18	1098	5
100213	15:34	1	f.shoche	19	387	5
100213	15:34	1	f.shrathe	20	2057	3
100213	15:34	1	f.shrote	21	1453	3
100213	15:34	1	f.krabe	22	3736	5
100213	15:34	1	f.vofe	23	833	5
100213	15:34	1	f.shrane	24	1061	6
100213	15:34	1	f.klashe	25	1192	5
100213	15:34	1	f.tweem	26	2557	4
100213	15:34	1	f.vook	27	677	4
100213	15:34	1	f.snome	28	416	4
100213	15:34	1	f.smeeze	29	1932	7
100213	15:34	1	f.stobe	30	1068	7
100213	15:34	1	f.sloge	31	566	5
100213	15:34	1	f.broge	32	357	5
100213	15:34	1	f.snoof	33	2164	3
100213	15:34	1	f.weech	34	1364	7
100213	15:34	1	f.mobe	35	1922	4
100213	15:34	1	f.dwashe	36	1555	8
100213	15:34	1	f.froosh	37	635	5
100213	15:34	1	f.gweef	38	351	5
100213	15:34	1	f.floog	39	1494	3
100213	15:34	1	f.thwoze	40	1128	3
100213	15:34	1	f.twoche	41	536	3
100213	15:34	1	f.twathe	42	3015	5
100213	15:34	1	f.thoche	43	685	5
100213	15:34	1	f.glale	44	1415	6
100213	15:34	1	f.cheel	45	1251	4
100213	15:34	1	f.voove	46	2630	7
100213	15:34	1	f.stoche	47	2586	5
100213	15:34	1	f.smose	48	970	5
100213	15:34	1	f.treeb	49	369	5
100213	15:34	1	f.bague	50	207	5
100213	15:34	1	f.steech	51	396	5
100213	15:34	1	f.throog	52	289	5
100213	15:34	1	f.kwoob	53	306	5
100213	15:34	1	f.noosh	54	180	5
100213	15:34	1	f.fape	55	257	5
100213	15:34	1	f.yogue	56	237	5
100213	15:34	1	f.fooch	57	681	5
100213	15:34	1	f.skeeve	58	395	5
100213	15:34	1	f.breer	59	296	5
100213	15:34	1	f.keeb	60	337	5
100213	15:34	1	howtype	1	35990	2
100213	16:01	1	speed	1	3080	54
100213	16:01	1	error	2	1976	98
100213	16:01	1	whichhand	3	6519	right
100213	16:01	1	f.fleep	1	5741	1
100213	16:01	1	f.doche	2	4574	2
100213	16:01	1	f.thwase	3	1742	1
100213	16:01	1	f.froob	4	1678	3
100213	16:01	1	f.gloke	5	2249	6
100213	16:01	1	f.skoshe	6	1860	5
100213	16:01	1	f.seeb	7	1647	5
100213	16:01	1	f.greeg	8	2171	6
100213	16:01	1	f.thwoof	9	1482	1
100213	16:01	1	f.zake	10	2308	5
100213	16:01	1	f.peeb	11	1606	5
100213	16:01	1	f.sague	12	2754	4
100213	16:01	1	f.plool	13	1875	6
100213	16:01	1	f.sneege	14	2286	4
100213	16:01	1	f.blathe	15	2265	6
100213	16:01	1	f.dwate	16	1603	2
100213	16:01	1	f.yeeb	17	2064	3
100213	16:01	1	f.thofe	18	3732	2
100213	16:01	1	f.shroon	19	1997	6
100213	16:01	1	f.thwade	20	1890	2
100213	16:01	1	f.dweese	21	3021	3
100213	16:01	1	f.flothe	22	1826	4
100213	16:01	1	f.groog	23	1991	4
100213	16:01	1	f.tweer	24	2165	4
100213	16:01	1	f.klale	25	1628	3
100213	16:01	1	f.yope	26	2144	5
100213	16:01	1	f.slale	27	1991	6
100213	16:01	1	f.thape	28	1774	4
100213	16:01	1	f.swoose	29	1428	5
100213	16:01	1	f.bashe	30	1313	6
100213	16:01	1	f.foche	31	1409	4
100213	16:01	1	f.glafe	32	1047	2
100213	16:01	1	f.stoob	33	1114	3
100213	16:01	1	f.gweep	34	2195	2
100213	16:01	1	f.yoom	35	1927	4
100213	16:01	1	f.tweege	36	3273	3
100213	16:01	1	f.ploosh	37	2260	6
100213	16:01	1	f.gweem	38	2158	4
100213	16:01	1	f.thwode	39	2102	3
100213	16:01	1	f.neeth	40	2607	3
100213	16:01	1	f.kwave	41	2070	3
100213	16:01	1	f.yabe	42	2009	3
100213	16:01	1	f.thode	43	1390	4
100213	16:01	1	f.dogue	44	3916	5
100213	16:01	1	f.dwone	45	2702	4
100213	16:01	1	f.joosh	46	1535	4
100213	16:01	1	f.zague	47	1984	3
100213	16:01	1	f.thweep	48	2413	4
100213	16:01	1	f.choge	49	1971	3
100213	16:01	1	f.throosh	50	1859	5
100213	16:01	1	f.dafe	51	1741	4
100213	16:01	1	f.thwoob	52	3014	3
100213	16:01	1	f.plope	53	1266	5
100213	16:01	1	f.boog	54	2133	1
100213	16:01	1	f.slobe	55	1262	1
100213	16:01	1	f.smage	56	1681	3
100213	16:01	1	f.twoosh	57	2115	2
100213	16:01	1	f.looch	58	2860	3
100213	16:01	1	f.spobe	59	1391	2
100213	16:01	1	f.voshe	60	1677	3
100213	16:01	1	r.game	1	3257	8
100213	16:01	1	r.tune	2	2149	9
100213	16:01	1	r.deserter	3	2062	1
100213	16:01	1	r.prairie	4	1945	4
100213	16:01	1	r.kiss	5	1392	9
100213	16:01	1	r.dove	6	1798	7
100213	16:01	1	r.meek	7	1604	2
100213	16:01	1	r.beautiful	8	1393	9
100213	16:01	1	r.street	9	1719	4
100213	16:01	1	r.crude	10	2055	3
100213	16:01	1	r.method	11	1891	8
100213	16:01	1	r.paint	12	1621	7
100213	16:01	1	r.moment	13	1706	9
100213	16:01	1	r.quality	14	2276	6
100213	16:01	1	r.lightbulb	15	1742	5
100213	16:01	1	r.door	16	1950	4
100213	16:01	1	r.coward	17	1157	1
100213	16:01	1	r.impotent	18	1349	1
100213	16:01	1	r.golfer	19	1420	4
100213	16:01	1	r.inferior	20	1529	2
100213	16:01	1	r.chair	21	1561	3
100213	16:01	1	r.penis	22	3464	5
100213	16:01	1	r.win	23	1460	9
100213	16:01	1	r.truth	24	1069	9
100213	16:01	1	r.charm	25	1001	9
100213	16:01	1	r.guillotine	26	3533	3
100213	16:01	1	r.heroin	27	1143	1
100213	16:01	1	r.green	28	2542	6
100213	16:01	1	r.humor	29	1397	8
100213	16:01	1	r.opinion	30	1748	8
100213	16:01	1	r.angel	31	1283	9
100213	16:01	1	r.scapegoat	32	2173	5
100213	16:01	1	r.menace	33	1700	2
100213	16:01	1	r.basket	34	2166	6
100213	16:01	1	r.erotic	35	1221	2
100213	16:01	1	r.insult	36	1058	1
100213	16:01	1	r.famous	37	2069	6
100213	16:01	1	r.burdened	38	1703	1
100213	16:01	1	r.execution	39	1313	1
100213	16:01	1	r.revolt	40	1466	2
100213	16:01	1	r.nonchalant	41	1557	1
100213	16:01	1	r.silk	42	1236	4
100213	16:01	1	r.rat	43	1352	1
100213	16:01	1	r.cell	44	2024	2
100213	16:01	1	r.insane	45	1253	1
100213	16:01	1	r.elated	46	1625	3
100213	16:01	1	r.bereavement	47	2494	3
100213	16:01	1	r.vandal	48	4583	3
100213	16:01	1	r.blackmail	49	1550	1
100213	16:01	1	r.quiet	50	2078	3
100213	16:01	1	r.nature	51	1496	4
100213	16:01	1	r.alive	52	4034	3
100213	16:01	1	r.gold	53	1879	8
100213	16:01	1	r.skeptical	54	1792	3
100213	16:01	1	r.advantage	55	2934	9
100213	16:01	1	r.stagnant	56	3678	7
100213	16:01	1	r.taxi	57	1322	5
100213	16:01	1	r.guilty	58	1443	3
100213	16:01	1	r.honest	59	2046	9
100213	16:01	1	r.easygoing	60	2793	6
100213	16:01	1	howtype	1	7942	6
100213	16:17	1	speed	1	3439	43
100213	16:17	1	error	2	2067	90
100213	16:17	1	whichhand	3	10446	left
100213	16:17	1	f.froof	1	10167	6
100213	16:17	1	f.gweel	2	6033	2
100213	16:17	1	f.flobe	3	4006	2
100213	16:17	1	f.zake	4	6292	8
100213	16:17	1	f.toshe	5	4327	9
100213	16:17	1	f.shoge	6	4800	5
100213	16:17	1	f.kleed	7	9279	5
100213	16:17	1	f.groshe	8	5052	4
100213	16:17	1	f.shrone	9	5328	3
100213	16:17	1	f.thoshe	10	2849	9
100213	16:17	1	f.greer	11	3909	5
100213	16:17	1	f.theeg	12	2879	4
100213	16:17	1	f.shreet	13	3842	4
100213	16:17	1	f.joshe	14	2886	5
100213	16:17	1	f.kweeb	15	4209	8
100213	16:17	1	f.feef	16	4758	4
100213	16:17	1	f.moob	17	4870	5
100213	16:17	1	f.yeege	18	3258	8
100213	16:17	1	f.thweep	19	2678	5
100213	16:17	1	f.throog	20	3167	5
100213	16:17	1	f.dwoshe	21	6664	2
100213	16:17	1	f.fabe	22	2076	5
100213	16:17	1	f.dwape	23	2279	5
100213	16:17	1	f.soshe	24	3193	4
100213	16:17	1	f.snage	25	2887	2
100213	16:17	1	f.skashe	26	4178	2
100213	16:17	1	f.swage	27	6680	7
100213	16:17	1	f.shase	28	1635	5
100213	16:17	1	f.floosh	29	5505	6
100213	16:17	1	f.broor	30	3980	2
100213	16:17	1	f.neeth	31	2394	5
100213	16:17	1	f.kwoze	32	5048	5
100213	16:17	1	f.kleesh	33	1397	5
100213	16:17	1	f.bogue	34	2066	3
100213	16:17	1	f.gwashe	35	3437	2
100213	16:17	1	f.smole	36	4978	5
100213	16:17	1	f.poob	37	3089	7
100213	16:17	1	f.freep	38	1475	5
100213	16:17	1	f.drogue	39	1830	5
100213	16:17	1	f.smathe	40	1202	5
100213	16:17	1	f.glogue	41	2464	4
100213	16:17	1	f.ploosh	42	3755	4
100213	16:17	1	f.thobe	43	2875	4
100213	16:17	1	f.gwape	44	1942	4
100213	16:17	1	f.shrofe	45	2926	2
100213	16:17	1	f.thweesh	46	2086	6
100213	16:17	1	f.sposhe	47	929	5
100213	16:17	1	f.gooch	48	2312	1
100213	16:17	1	f.twache	49	2458	2
100213	16:17	1	f.snooth	50	1718	5
100213	16:17	1	f.gwoke	51	2678	5
100213	16:17	1	f.brague	52	2161	4
100213	16:17	1	f.shobe	53	2360	7
100213	16:17	1	f.neeg	54	2366	4
100213	16:17	1	f.slode	55	1333	6
100213	16:17	1	f.throove	56	2078	4
100213	16:17	1	f.chode	57	4289	9
100213	16:17	1	f.plove	58	2220	5
100213	16:17	1	f.shroon	59	2656	4
100213	16:17	1	f.yoog	60	1685	3
100213	16:17	1	r.nonchalant	1	6786	5
100213	16:17	1	r.circus	2	2962	8
100213	16:17	1	r.charm	3	5417	8
100213	16:17	1	r.upset	4	2552	1
100213	16:17	1	r.christmas	5	1703	9
100213	16:17	1	r.bless	6	3249	7
100213	16:17	1	r.whistle	7	1837	7
100213	16:17	1	r.tense	8	2137	2
100213	16:17	1	r.relaxed	9	1850	9
100213	16:17	1	r.nasty	10	1453	1
100213	16:17	1	r.answer	11	1976	5
100213	16:17	1	r.dove	12	2991	5
100213	16:17	1	r.insult	13	1662	2
100213	16:17	1	r.thorn	14	2753	3
100213	16:17	1	r.fascinate	15	3529	5
100213	16:17	1	r.tank	16	2513	5
100213	16:17	1	r.suffocate	17	1946	1
100213	16:17	1	r.ecstasy	18	3737	5
100213	16:17	1	r.waterfall	19	3426	7
100213	16:17	1	r.justice	20	3176	5
100213	16:17	1	r.indifferent	21	2838	4
100213	16:17	1	r.toothache	22	2107	2
100213	16:17	1	r.putrid	23	2660	4
100213	16:17	1	r.tender	24	2312	4
100213	16:17	1	r.assassin	25	2657	5
100213	16:17	1	r.pride	26	2029	7
100213	16:17	1	r.accident	27	1561	3
100213	16:17	1	r.fish	28	3928	7
100213	16:17	1	r.dinner	29	1887	9
100213	16:17	1	r.fire	30	3675	9
100213	16:17	1	r.syphilis	31	3894	1
100213	16:17	1	r.avalanche	32	2912	5
100213	16:17	1	r.snake	33	1465	1
100213	16:17	1	r.whore	34	5052	3
100213	16:17	1	r.kettle	35	1737	5
100213	16:17	1	r.erotic	36	2569	8
100213	16:17	1	r.table	37	1920	5
100213	16:17	1	r.quiet	38	2937	4
100213	16:17	1	r.innocent	39	8058	6
100213	16:17	1	r.holiday	40	6078	9
100213	16:17	1	r.decorate	41	2483	2
100213	16:17	1	r.doll	42	1693	4
100213	16:17	1	r.egg	43	1790	7
100213	16:17	1	r.memories	44	1556	8
100213	16:17	1	r.sex	45	1236	9
100213	16:17	1	r.skeptical	46	3904	4
100213	16:17	1	r.divorce	47	2499	1
100213	16:17	1	r.loser	48	1556	1
100213	16:17	1	r.basket	49	2748	5
100213	16:17	1	r.museum	50	1972	4
100213	16:17	1	r.distressed	51	2891	2
100213	16:17	1	r.hurricane	52	1493	1
100213	16:17	1	r.reward	53	1686	9
100213	16:17	1	r.book	54	2456	5
100213	16:17	1	r.absurd	55	2237	5
100213	16:17	1	r.consoled	56	3249	6
100213	16:17	1	r.cruel	57	1909	2
100213	16:17	1	r.pus	58	1629	1
100213	16:17	1	r.tumor	59	1202	1
100213	16:17	1	r.penthouse	60	2160	9
100213	16:17	1	howtype	1	18541	7
100213	16:34	1	speed	1	3235	50
100213	16:34	1	error	2	1916	96
100213	16:34	1	whichhand	3	7853	Left
100213	16:34	1	r.elegant	1	12670	8
100213	16:34	1	r.stress	2	8874	2
100213	16:34	1	r.soothe	3	4127	9
100213	16:34	1	r.body	4	3216	5
100213	16:34	1	r.rabbit	5	4550	5
100213	16:34	1	r.infatuation	6	3542	5
100213	16:34	1	r.coast	7	2886	7
100213	16:34	1	r.history	8	2553	5
100213	16:34	1	r.virgin	9	1640	5
100213	16:34	1	r.friend	10	3349	8
100213	16:34	1	r.avenue	11	3485	6
100213	16:34	1	r.earth	12	1608	6
100213	16:34	1	r.paralysis	13	2789	1
100213	16:34	1	r.confident	14	2276	9
100213	16:34	1	r.useless	15	2325	1
100213	16:34	1	r.man	16	2333	6
100213	16:34	1	r.detail	17	3918	5
100213	16:34	1	r.bath	18	2809	7
100213	16:34	1	r.lesbian	19	2718	3
100213	16:34	1	r.torture	20	2615	1
100213	16:34	1	r.mystic	21	2348	6
100213	16:34	1	r.hopeful	22	1660	8
100213	16:34	1	r.king	23	1502	5
100213	16:34	1	r.dancer	24	1761	6
100213	16:34	1	r.absurd	25	1968	5
100213	16:34	1	r.shy	26	1806	5
100213	16:34	1	r.sky	27	1491	6
100213	16:34	1	r.disappoint	28	4957	1
100213	16:34	1	r.butterfly	29	2070	7
100213	16:34	1	r.embattled	30	2521	5
100213	16:34	1	r.disturb	31	2522	4
100213	16:34	1	r.lion	32	4139	5
100213	16:34	1	r.rain	33	1876	6
100213	16:34	1	r.affection	34	1310	6
100213	16:34	1	r.market	35	991	5
100213	16:34	1	r.infant	36	3188	6
100213	16:34	1	r.unit	37	1420	5
100213	16:34	1	r.dream	38	2145	7
100213	16:34	1	r.aroused	39	1712	5
100213	16:34	1	r.malice	40	3801	3
100213	16:34	1	r.cuddle	41	3215	7
100213	16:34	1	r.moody	42	1380	4
100213	16:34	1	r.cannon	43	1466	5
100213	16:34	1	r.alert	44	10918	5
100213	16:34	1	r.prick	45	1498	5
100213	16:34	1	r.hay	46	1211	5
100213	16:34	1	r.loser	47	1696	2
100213	16:34	1	r.lighthouse	48	1761	5
100213	16:34	1	r.context	49	929	5
100213	16:34	1	r.moral	50	3112	6
100213	16:34	1	r.sphere	51	1586	5
100213	16:34	1	r.stench	52	2215	1
100213	16:34	1	r.greed	53	1541	1
100213	16:34	1	r.bold	54	1925	8
100213	16:34	1	r.social	55	1742	7
100213	16:34	1	r.heart	56	1542	7
100213	16:34	1	r.alcoholic	57	1518	1
100213	16:34	1	r.indifferent	58	1887	5
100213	16:34	1	r.paradise	59	2049	9
100213	16:34	1	r.corner	60	1493	5
100213	16:34	1	f.skashe	1	4541	6
100213	16:34	1	f.thone	2	1701	5
100213	16:34	1	f.twague	3	3055	4
100213	16:34	1	f.fague	4	2020	4
100213	16:34	1	f.slabe	5	1736	4
100213	16:34	1	f.thooch	6	4913	5
100213	16:34	1	f.steef	7	1450	5
100213	16:34	1	f.smase	8	1751	6
100213	16:34	1	f.jeech	9	1102	5
100213	16:34	1	f.thoge	10	951	5
100213	16:34	1	f.flafe	11	1221	4
100213	16:34	1	f.bloosh	12	2596	6
100213	16:34	1	f.zobe	13	2185	3
100213	16:34	1	f.gwabe	14	2798	4
100213	16:34	1	f.skeese	15	3150	2
100213	16:34	1	f.gwode	16	1565	2
100213	16:34	1	f.swove	17	1597	6
100213	16:34	1	f.dooth	18	1858	4
100213	16:34	1	f.yoge	19	2205	5
100213	16:34	1	f.teege	20	1787	4
100213	16:34	1	f.twope	21	2210	5
100213	16:34	1	f.snabe	22	1583	4
100213	16:34	1	f.soche	23	4845	5
100213	16:34	1	f.gwooth	24	2001	3
100213	16:34	1	f.dwoge	25	2207	4
100213	16:34	1	f.thoop	26	1877	5
100213	16:34	1	f.thane	27	1791	6
100213	16:34	1	f.greeg	28	2181	3
100213	16:34	1	f.voove	29	2451	6
100213	16:34	1	f.jofe	30	1918	5
100213	16:34	1	f.froshe	31	6752	5
100213	16:34	1	f.thoove	32	1977	3
100213	16:34	1	f.zoop	33	1392	4
100213	16:34	1	f.dweel	34	3494	3
100213	16:34	1	f.sweel	35	1520	4
100213	16:34	1	f.vooge	36	2185	3
100213	16:34	1	f.throbe	37	1606	3
100213	16:34	1	f.fleech	38	3901	1
100213	16:34	1	f.fleeve	39	1406	1
100213	16:34	1	f.sleeg	40	1580	3
100213	16:34	1	f.twathe	41	1307	3
100213	16:34	1	f.kague	42	1892	7
100213	16:34	1	f.thwooth	43	1638	3
100213	16:34	1	f.mothe	44	3979	3
100213	16:34	1	f.zore	45	1721	2
100213	16:34	1	f.shrote	46	2186	4
100213	16:34	1	f.fafe	47	2665	5
100213	16:34	1	f.kwose	48	1972	5
100213	16:34	1	f.feeb	49	1522	3
100213	16:34	1	f.kwape	50	1108	4
100213	16:34	1	f.fleef	51	3693	2
100213	16:34	1	f.skothe	52	3503	3
100213	16:34	1	f.snobe	53	2769	2
100213	16:34	1	f.thwoze	54	2009	3
100213	16:34	1	f.droge	55	3302	3
100213	16:34	1	f.slague	56	2544	4
100213	16:34	1	f.thwoche	57	1280	3
100213	16:34	1	f.thade	58	1674	4
100213	16:34	1	f.fleeb	59	1452	2
100213	16:34	1	f.dwooze	60	1745	4
100213	16:34	1	howtype	1	7991	6
100313	10:55	1	speed	1	3237	46
100313	10:55	1	error	2	3247	73
100313	10:55	1	whichhand	3	11009	right
100313	10:55	1	r.injury	1	10521	3
100313	10:55	1	r.hospital	2	4045	1
100313	10:55	1	r.riches	3	5457	7
100313	10:55	1	r.memory	4	3671	5
100313	10:55	1	r.snow	5	3913	8
100313	10:55	1	r.hit	6	2043	5
100313	10:55	1	r.revolver	7	2776	7
100313	10:55	1	r.astonished	8	4119	4
100313	10:55	1	r.elegant	9	3992	9
100313	10:55	1	r.sick	10	2567	2
100313	10:55	1	r.moment	11	2822	5
100313	10:55	1	r.clock	12	2571	7
100313	10:55	1	r.defiant	13	6466	4
100313	10:55	1	r.indifferent	14	2095	2
100313	10:55	1	r.god	15	2144	7
100313	10:55	1	r.grime	16	4192	7
100313	10:55	1	r.fear	17	1590	5
100313	10:55	1	r.hooker	18	2060	5
100313	10:55	1	r.resent	19	2120	4
100313	10:55	1	r.fame	20	2409	8
100313	10:55	1	r.dirt	21	2533	3
100313	10:55	1	r.shadow	22	3831	5
100313	10:55	1	r.chair	23	5188	6
100313	10:55	1	r.gun	24	2667	5
100313	10:55	1	r.whore	25	1878	5
100313	10:55	1	r.rancid	26	1664	4
100313	10:55	1	r.fork	27	3010	5
100313	10:55	1	r.neglect	28	2880	2
100313	10:55	1	r.louse	29	1995	4
100313	10:55	1	r.body	30	2697	5
100313	10:55	1	r.tree	31	3483	6
100313	10:55	1	r.perfume	32	1629	7
100313	10:55	1	r.inspire	33	1602	8
100313	10:55	1	r.rough	34	2534	4
100313	10:55	1	r.board	35	3783	5
100313	10:55	1	r.urine	36	4382	5
100313	10:55	1	r.bottle	37	1973	6
100313	10:55	1	r.column	38	2501	6
100313	10:55	1	r.fearful	39	2150	3
100313	10:55	1	r.termite	40	3286	3
100313	10:55	1	r.star	41	3017	8
100313	10:55	1	r.stomach	42	6638	6
100313	10:55	1	r.mother	43	1739	9
100313	10:55	1	r.corridor	44	2484	4
100313	10:55	1	r.beggar	45	3454	4
100313	10:55	1	r.discomfort	46	1627	3
100313	10:55	1	r.slow	47	2103	3
100313	10:55	1	r.good	48	1640	5
100313	10:55	1	r.treat	49	2013	5
100313	10:55	1	r.subdued	50	2338	4
100313	10:55	1	r.joke	51	1490	7
100313	10:55	1	r.wasp	52	2404	4
100313	10:55	1	r.menace	53	3194	6
100313	10:55	1	r.horror	54	1376	4
100313	10:55	1	r.snuggle	55	1422	4
100313	10:55	1	r.prick	56	1195	5
100313	10:55	1	r.glass	57	1384	6
100313	10:55	1	r.burial	58	1351	4
100313	10:55	1	r.dawn	59	2294	5
100313	10:55	1	r.addict	60	3976	6
100313	10:55	1	f.jeet	1	2404	4
100313	10:55	1	f.woche	2	3027	4
100313	10:55	1	f.stashe	3	2279	5
100313	10:55	1	f.kwape	4	1522	6
100313	10:55	1	f.shroose	5	1546	6
100313	10:55	1	f.gwome	6	1338	7
100313	10:55	1	f.smaze	7	2114	7
100313	10:55	1	f.brooge	8	1738	4
100313	10:55	1	f.kweeve	9	1091	5
100313	10:55	1	f.glook	10	821	5
100313	10:55	1	f.shreef	11	1290	6
100313	10:55	1	f.joof	12	1556	4
100313	10:55	1	f.veeve	13	1028	7
100313	10:55	1	f.meesh	14	2872	3
100313	10:55	1	f.swave	15	1251	5
100313	10:55	1	f.chool	16	1006	6
100313	10:55	1	f.snome	17	1267	7
100313	10:55	1	f.yove	18	1813	7
100313	10:55	1	f.twose	19	1083	7
100313	10:55	1	f.thweeg	20	1333	4
100313	10:55	1	f.gwake	21	861	5
100313	10:55	1	f.thweeve	22	912	4
100313	10:55	1	f.bloge	23	1536	4
100313	10:55	1	f.kwoosh	24	1088	4
100313	10:55	1	f.blathe	25	979	5
100313	10:55	1	f.spoog	26	785	6
100313	10:55	1	f.gwoze	27	759	6
100313	10:55	1	f.sloose	28	870	7
100313	10:55	1	f.twoop	29	929	7
100313	10:55	1	f.groosh	30	657	7
100313	10:55	1	f.shrose	31	756	6
100313	10:55	1	f.dwooge	32	971	5
100313	10:55	1	f.throfe	33	1018	4
100313	10:55	1	f.dwoge	34	582	5
100313	10:55	1	f.spame	35	628	5
100313	10:55	1	f.smothe	36	2848	6
100313	10:55	1	f.brabe	37	979	5
100313	10:55	1	f.dweef	38	2026	4
100313	10:55	1	f.smool	39	2606	6
100313	10:55	1	f.glose	40	1700	6
100313	10:55	1	f.thrame	41	1350	4
100313	10:55	1	f.swool	42	5861	5
100313	10:55	1	f.stafe	43	2041	4
100313	10:55	1	f.gwase	44	2638	5
100313	10:55	1	f.choog	45	1082	6
100313	10:55	1	f.thwame	46	716	5
100313	10:55	1	f.smeesh	47	837	5
100313	10:55	1	f.smoosh	48	881	5
100313	10:55	1	f.drore	49	1083	6
100313	10:55	1	f.snoom	50	1749	6
100313	10:55	1	f.broop	51	1252	4
100313	10:55	1	f.pothe	52	1423	4
100313	10:55	1	f.ploge	53	780	5
100313	10:55	1	f.threeve	54	802	5
100313	10:55	1	f.flooth	55	752	5
100313	10:55	1	f.pleech	56	2799	4
100313	10:55	1	f.krofe	57	7485	4
100313	10:55	1	f.smeed	58	1401	5
100313	10:55	1	f.droob	59	1350	4
100313	10:55	1	f.thrape	60	774	5
100313	10:55	1	howtype	1	35290	6
100313	11:31	1	speed	1	2642	45
100313	11:31	1	error	2	1686	100
