date	time	subject	trialcode	trialnum	latency	response
092513	11:50	1	speed	1	5729	53
092513	11:50	1	error	2	2579	98
092513	11:50	1	whichhand	3	17706	right
092513	11:50	1	r.grief	1	23075	4
092513	11:50	1	r.despise	2	7662	3
092513	11:50	1	r.month	3	6387	5
092513	11:50	1	r.elevator	4	9667	5
092513	11:50	1	r.betray	5	11440	2
092513	11:50	1	r.prick	6	7463	4
092513	11:50	1	r.bandage	7	12124	5
092513	11:50	1	r.natural	8	7944	7
092513	11:50	1	r.affection	9	7970	7
092513	11:50	1	r.bomb	10	4555	1
092513	11:50	1	r.hamburger	11	4092	6
092513	11:50	1	r.discomfort	12	5006	4
092513	11:50	1	r.delight	13	5493	6
092513	11:50	1	r.grass	14	5680	7
092513	11:50	1	r.obsession	15	3379	2
092513	11:50	1	r.waste	16	5954	3
092513	11:50	1	r.silk	17	3771	8
092513	11:50	1	r.icebox	18	3075	5
092513	11:50	1	r.angry	19	3607	2
092513	11:50	1	r.penalty	20	3869	4
092513	11:50	1	r.kiss	21	7832	9
092513	11:50	1	r.scream	22	3127	1
092513	11:50	1	r.ankle	23	11216	5
092513	11:50	1	r.letter	24	6720	5
092513	11:50	1	r.burn	25	3147	3
092513	11:50	1	r.office	26	5035	4
092513	11:50	1	r.fever	27	4984	3
092513	11:50	1	r.dancer	28	5392	6
092513	11:50	1	r.nasty	29	5687	3
092513	11:50	1	r.paralysis	30	4970	1
092513	11:50	1	r.admired	31	3826	9
092513	11:50	1	r.immoral	32	6447	5
092513	11:50	1	r.board	33	5701	6
092513	11:50	1	r.alien	34	8512	5
092513	11:50	1	r.adult	35	6643	4
092513	11:50	1	r.power	36	7928	4
092513	11:50	1	r.abundance	37	8091	6
092513	11:50	1	r.home	38	4615	7
092513	11:50	1	r.ugly	39	3941	3
092513	11:50	1	r.divorce	40	4358	1
092513	11:50	1	r.feeble	41	4694	4
092513	11:50	1	r.joke	42	3833	8
092513	11:50	1	r.egg	43	8438	6
092513	11:50	1	r.contempt	44	7045	5
092513	11:50	1	r.history	45	3146	3
092513	11:50	1	r.crime	46	5154	2
092513	11:50	1	r.fearful	47	5011	2
092513	11:50	1	r.sinful	48	2665	1
092513	11:50	1	r.criminal	49	2708	1
092513	11:50	1	r.curtains	50	4998	5
092513	11:50	1	r.subdued	51	7997	4
092513	11:50	1	r.plane	52	15269	5
092513	11:50	1	r.wounds	53	2621	3
092513	11:50	1	r.abduction	54	5834	1
092513	11:50	1	r.nightmare	55	3487	1
092513	11:50	1	r.plain	56	5739	4
092513	11:50	1	r.incentive	57	6796	7
092513	11:50	1	r.detest	58	6035	4
092513	11:50	1	r.bless	59	5025	8
092513	11:50	1	r.sapphire	60	4023	7
092513	11:50	1	f.thoob	1	10066	4
092513	11:50	1	f.frogue	2	6632	5
092513	11:50	1	f.blale	3	4622	3
092513	11:50	1	f.gwoosh	4	4852	7
092513	11:50	1	f.gwane	5	5233	5
092513	11:50	1	f.dwathe	6	7822	5
092513	11:50	1	f.klade	7	5646	6
092513	11:50	1	f.dwoog	8	7402	4
092513	11:50	1	f.sweech	9	3458	3
092513	11:50	1	f.thwaze	10	11046	2
092513	11:50	1	f.skabe	11	4333	3
092513	11:50	1	f.yoog	12	3926	6
092513	11:50	1	f.groob	13	7311	6
092513	11:50	1	f.zeed	14	16466	3
092513	11:50	1	f.kwame	15	5994	6
092513	11:50	1	f.swose	16	6073	4
092513	11:50	1	f.vafe	17	4822	5
092513	11:50	1	f.shoog	18	3356	8
092513	11:50	1	f.froosh	19	4404	7
092513	11:50	1	f.thwoor	20	5763	7
092513	11:50	1	f.loshe	21	7747	5
092513	11:50	1	f.broge	22	4661	3
092513	11:50	1	f.thwoshe	23	7441	4
092513	11:50	1	f.thwose	24	6254	5
092513	11:50	1	f.kloop	25	6612	9
092513	11:50	1	f.meeth	26	3970	1
092513	11:50	1	f.plore	27	6378	6
092513	11:50	1	f.smade	28	5234	5
092513	11:50	1	f.seeb	29	5704	6
092513	11:50	1	f.blool	30	7227	3
092513	11:50	1	f.smane	31	13281	3
092513	11:50	1	f.gwome	32	9151	5
092513	11:50	1	f.gwobe	33	3641	7
092513	11:50	1	f.snothe	34	5110	4
092513	11:50	1	f.voge	35	3521	8
092513	11:50	1	f.tweeth	36	7354	2
092513	11:50	1	f.grashe	37	6051	2
092513	11:50	1	f.flage	38	5785	6
092513	11:50	1	f.flabe	39	6552	5
092513	11:50	1	f.yeech	40	5002	7
092513	11:50	1	f.trage	41	8336	4
092513	11:50	1	f.sabe	42	6283	4
092513	11:50	1	f.glooge	43	5223	6
092513	11:50	1	f.zoot	44	3603	8
092513	11:50	1	f.pleep	45	5395	9
092513	11:50	1	f.veeve	46	7011	5
092513	11:50	1	f.zode	47	9969	5
092513	11:50	1	f.thooge	48	5475	6
092513	11:50	1	f.shreeb	49	7942	3
092513	11:50	1	f.kwage	50	13288	5
092513	11:50	1	f.blogue	51	7902	6
092513	11:50	1	f.greeg	52	9666	7
092513	11:50	1	f.bloshe	53	4056	6
092513	11:50	1	f.spove	54	5924	4
092513	11:50	1	f.doog	55	3142	7
092513	11:50	1	f.glooch	56	6446	5
092513	11:50	1	f.skeeve	57	10700	6
092513	11:50	1	f.slame	58	2824	3
092513	11:50	1	f.proke	59	9702	2
092513	11:50	1	f.snoche	60	6522	4
092513	11:50	1	howtype	1	37827	6
092513	13:23	1	speed	1	3413	44
092513	13:23	1	error	2	2715	88
092513	13:23	1	whichhand	3	7277	right
092513	13:23	1	r.aggressive	1	9589	1
092513	13:23	1	r.spray	2	3755	5
092513	13:23	1	r.dream	3	2516	9
092513	13:23	1	r.life	4	1869	9
092513	13:23	1	r.talent	5	2264	8
092513	13:23	1	r.loved	6	2186	9
092513	13:23	1	r.cruel	7	1714	1
092513	13:23	1	r.salad	8	2827	7
092513	13:23	1	r.depressed	9	1856	1
092513	13:23	1	r.news	10	2331	5
092513	13:23	1	r.mobility	11	2228	9
092513	13:23	1	r.lonely	12	1503	1
092513	13:23	1	r.couple	13	1506	9
092513	13:23	1	r.addict	14	1507	1
092513	13:23	1	r.trophy	15	1709	9
092513	13:23	1	r.listless	16	3534	5
092513	13:23	1	r.basket	17	1909	5
092513	13:23	1	r.grief	18	1375	1
092513	13:23	1	r.gossip	19	2574	1
092513	13:23	1	r.anxious	20	1733	1
092513	13:23	1	r.repentant	21	6685	1
092513	13:23	1	r.aloof	22	1394	1
092513	13:23	1	r.unfaithful	23	1191	1
092513	13:23	1	r.patent	24	2293	5
092513	13:23	1	r.vanity	25	1231	1
092513	13:23	1	r.nature	26	1715	9
092513	13:23	1	r.odd	27	3172	7
092513	13:23	1	r.rigid	28	2148	5
092513	13:23	1	r.dress	29	1876	9
092513	13:23	1	r.misery	30	1221	1
092513	13:23	1	r.column	31	1938	5
092513	13:23	1	r.bed	32	1546	9
092513	13:23	1	r.pistol	33	1459	1
092513	13:23	1	r.applause	34	1510	9
092513	13:23	1	r.intellect	35	1607	9
092513	13:23	1	r.severe	36	1645	1
092513	13:23	1	r.save	37	1704	9
092513	13:23	1	r.broken	38	1281	1
092513	13:23	1	r.corrupt	39	1547	1
092513	13:23	1	r.decompose	40	1387	1
092513	13:23	1	r.trauma	41	1146	1
092513	13:23	1	r.enjoyment	42	1385	9
092513	13:23	1	r.leprosy	43	1414	1
092513	13:23	1	r.burdened	44	1196	1
092513	13:23	1	r.house	45	1346	9
092513	13:23	1	r.cute	46	1297	9
092513	13:23	1	r.crutch	47	1778	1
092513	13:23	1	r.poetry	48	3415	7
092513	13:23	1	r.wonder	49	2447	7
092513	13:23	1	r.contempt	50	3594	5
092513	13:23	1	r.wish	51	1919	9
092513	13:23	1	r.liberty	52	1481	9
092513	13:23	1	r.shotgun	53	3256	5
092513	13:23	1	r.strong	54	1383	9
092513	13:23	1	r.bomb	55	1653	1
092513	13:23	1	r.learn	56	1871	9
092513	13:23	1	r.dead	57	1418	1
092513	13:23	1	r.mad	58	1375	1
092513	13:23	1	r.champion	59	1454	9
092513	13:23	1	r.derelict	60	2058	5
092513	13:23	1	f.flathe	1	2938	1
092513	13:23	1	f.stase	2	2491	5
092513	13:23	1	f.shrape	3	2910	5
092513	13:23	1	f.blashe	4	2144	1
092513	13:23	1	f.woche	5	1279	1
092513	13:23	1	f.dwache	6	1681	1
092513	13:23	1	f.shrothe	7	1404	1
092513	13:23	1	f.thabe	8	2137	9
092513	13:23	1	f.threef	9	2001	9
092513	13:23	1	f.smoop	10	2000	5
092513	13:23	1	f.prake	11	1596	1
092513	13:23	1	f.kwage	12	1683	1
092513	13:23	1	f.droose	13	2772	5
092513	13:23	1	f.frooch	14	1779	9
092513	13:23	1	f.klooch	15	1066	9
092513	13:23	1	f.kwooze	16	2190	9
092513	13:23	1	f.stague	17	2708	5
092513	13:23	1	f.joom	18	1413	9
092513	13:23	1	f.zobe	19	2009	9
092513	13:23	1	f.yache	20	3382	9
092513	13:23	1	f.plool	21	1836	9
092513	13:23	1	f.jeeth	22	2295	5
092513	13:23	1	f.shreep	23	2114	1
092513	13:23	1	f.cheeg	24	4931	1
092513	13:23	1	f.dween	25	2173	9
092513	13:23	1	f.dwoze	26	1308	5
092513	13:23	1	f.shrache	27	1358	1
092513	13:23	1	f.slooch	28	2518	9
092513	13:23	1	f.dwage	29	2895	9
092513	13:23	1	f.floog	30	2577	5
092513	13:23	1	f.teeve	31	4032	9
092513	13:23	1	f.smathe	32	2005	1
092513	13:23	1	f.drafe	33	1331	1
092513	13:23	1	f.dwole	34	1659	5
092513	13:23	1	f.smane	35	1446	9
092513	13:23	1	f.theeve	36	970	9
092513	13:23	1	f.meeth	37	1129	9
092513	13:23	1	f.thweel	38	1105	5
092513	13:23	1	f.thave	39	1146	1
092513	13:23	1	f.prool	40	1321	9
092513	13:23	1	f.neech	41	1513	5
092513	13:23	1	f.beesh	42	2304	9
092513	13:23	1	f.gwooge	43	1369	1
092513	13:23	1	f.slofe	44	1232	9
092513	13:23	1	f.sooch	45	2964	1
092513	13:23	1	f.skove	46	1884	9
092513	13:23	1	f.thrope	47	2206	1
092513	13:23	1	f.dwale	48	2005	1
092513	13:23	1	f.sweeth	49	1395	9
092513	13:23	1	f.flage	50	2952	6
092513	13:23	1	f.preeth	51	2584	6
092513	13:23	1	f.zoosh	52	1239	4
092513	13:23	1	f.sleege	53	4491	8
092513	13:23	1	f.kwaze	54	3790	4
092513	13:23	1	f.threel	55	3533	8
092513	13:23	1	f.twooch	56	1894	1
092513	13:23	1	f.plope	57	2112	9
092513	13:23	1	f.voob	58	1313	9
092513	13:23	1	f.sweeve	59	1138	1
092513	13:23	1	f.frave	60	1010	4
092513	13:23	1	howtype	1	10405	5
092513	13:50	1	speed	1	4479	55
092513	13:50	1	error	2	2160	85
092513	13:50	1	whichhand	3	6664	right
092513	13:50	1	r.loyal	1	5620	6
092513	13:50	1	r.bloody	2	2299	3
092513	13:50	1	r.magical	3	2436	7
092513	13:50	1	r.option	4	3729	4
092513	13:50	1	r.applause	5	2082	6
092513	13:50	1	r.appliance	6	2196	4
092513	13:50	1	r.icebox	7	1634	4
092513	13:50	1	r.bowl	8	1246	4
092513	13:50	1	r.aggressive	9	4098	4
092513	13:50	1	r.rotten	10	1252	3
092513	13:50	1	r.part	11	2216	5
092513	13:50	1	r.headlight	12	1757	5
092513	13:50	1	r.inspired	13	1477	7
092513	13:50	1	r.power	14	1591	7
092513	13:50	1	r.pasta	15	2069	5
092513	13:50	1	r.tumor	16	2032	2
092513	13:50	1	r.neglect	17	1365	3
092513	13:50	1	r.penalty	18	1508	4
092513	13:50	1	r.bomb	19	1717	4
092513	13:50	1	r.lottery	20	2102	6
092513	13:50	1	r.rancid	21	2312	3
092513	13:50	1	r.needle	22	1344	4
092513	13:50	1	r.stagnant	23	1496	4
092513	13:50	1	r.swift	24	1360	6
092513	13:50	1	r.sinful	25	1257	4
092513	13:50	1	r.holiday	26	2412	7
092513	13:50	1	r.avenue	27	1674	5
092513	13:50	1	r.toothache	28	4852	4
092513	13:50	1	r.garment	29	3537	4
092513	13:50	1	r.gentle	30	1642	6
092513	13:50	1	r.garter	31	1798	5
092513	13:50	1	r.fur	32	1603	6
092513	13:50	1	r.regretful	33	2089	4
092513	13:50	1	r.savior	34	1779	7
092513	13:50	1	r.hydrant	35	2778	5
092513	13:50	1	r.repentant	36	1824	5
092513	13:50	1	r.skull	37	1510	4
092513	13:50	1	r.engaged	38	2078	6
092513	13:50	1	r.athletics	39	1393	6
092513	13:50	1	r.triumphant	40	1414	6
092513	13:50	1	r.employment	41	1555	6
092513	13:50	1	r.bride	42	1515	7
092513	13:50	1	r.clumsy	43	1716	5
092513	13:50	1	r.tragedy	44	2421	3
092513	13:50	1	r.nonchalant	45	1706	5
092513	13:50	1	r.swimmer	46	1588	5
092513	13:50	1	r.waste	47	1850	4
092513	13:50	1	r.lion	48	2749	5
092513	13:50	1	r.hay	49	1717	4
092513	13:50	1	r.sissy	50	1415	5
092513	13:50	1	r.gun	51	1811	5
092513	13:50	1	r.tidy	52	1320	6
092513	13:50	1	r.hinder	53	1497	4
092513	13:50	1	r.dummy	54	1491	3
092513	13:50	1	r.gender	55	2269	6
092513	13:50	1	r.nude	56	4768	5
092513	13:50	1	r.bunny	57	1560	6
092513	13:50	1	r.decorate	58	2527	6
092513	13:50	1	r.gift	59	2152	7
092513	13:50	1	r.movie	60	1199	7
092513	13:50	1	f.thwogue	1	3121	3
092513	13:50	1	f.troog	2	1355	4
092513	13:50	1	f.kleep	3	1507	5
092513	13:50	1	f.teeg	4	1340	6
092513	13:50	1	f.thwoom	5	1916	5
092513	13:50	1	f.glase	6	1525	7
092513	13:50	1	f.flope	7	2350	6
092513	13:50	1	f.vade	8	2006	5
092513	13:50	1	f.swove	9	1643	4
092513	13:50	1	f.frobe	10	1551	5
092513	13:50	1	f.gathe	11	1663	3
092513	13:50	1	f.twole	12	2378	6
092513	13:50	1	f.krore	13	2080	5
092513	13:50	1	f.chooth	14	1963	5
092513	13:50	1	f.dwofe	15	1738	5
092513	13:50	1	f.sloose	16	2706	5
092513	13:50	1	f.nashe	17	1364	4
092513	13:50	1	f.thooch	18	2499	4
092513	13:50	1	f.dabe	19	1477	4
092513	13:50	1	f.looch	20	1535	4
092513	13:50	1	f.mobe	21	1063	5
092513	13:50	1	f.shreep	22	2418	5
092513	13:50	1	f.thrashe	23	3255	3
092513	13:50	1	f.stache	24	1931	6
092513	13:50	1	f.gwoon	25	2764	4
092513	13:50	1	f.flove	26	1379	5
092513	13:50	1	f.zague	27	1809	5
092513	13:50	1	f.thwabe	28	2222	5
092513	13:50	1	f.vabe	29	3764	5
092513	13:50	1	f.gloshe	30	1675	4
092513	13:50	1	f.smave	31	1774	5
092513	13:50	1	f.plage	32	2189	3
092513	13:50	1	f.yobe	33	4044	5
092513	13:50	1	f.thrague	34	2312	4
092513	13:50	1	f.poom	35	2889	6
092513	13:50	1	f.veef	36	1364	5
092513	13:50	1	f.snabe	37	1875	5
092513	13:50	1	f.thope	38	2182	5
092513	13:50	1	f.yoof	39	3396	5
092513	13:50	1	f.zeer	40	2363	4
092513	13:50	1	f.woche	41	1250	5
092513	13:50	1	f.kwooze	42	3229	5
092513	13:50	1	f.bloosh	43	1354	5
092513	13:50	1	f.zooge	44	1170	5
092513	13:50	1	f.throge	45	2192	4
092513	13:50	1	f.brage	46	2830	4
092513	13:50	1	f.shrooze	47	3131	5
092513	13:50	1	f.swogue	48	2011	4
092513	13:50	1	f.thool	49	2441	4
092513	13:50	1	f.moob	50	3076	5
092513	13:50	1	f.slole	51	3320	5
092513	13:50	1	f.gweeth	52	2594	4
092513	13:50	1	f.thove	53	1719	4
092513	13:50	1	f.twoge	54	1160	4
092513	13:50	1	f.loche	55	1383	4
092513	13:50	1	f.noob	56	2317	5
092513	13:50	1	f.yeege	57	1975	5
092513	13:50	1	f.flooch	58	3166	4
092513	13:50	1	f.kroosh	59	1909	4
092513	13:50	1	f.gwooge	60	2766	3
092513	13:50	1	howtype	1	13843	6
092613	10:56	1	speed	1	3684	71
092613	10:56	1	error	2	1966	98
092613	10:56	1	whichhand	3	6181	right
092613	10:56	1	f.steeth	1	9629	3
092613	10:56	1	f.gleege	2	8516	3
092613	10:56	1	f.jashe	3	7095	6
092613	10:56	1	f.snooge	4	9170	4
092613	10:56	1	f.kreege	5	3572	5
092613	10:56	1	f.twose	6	4556	5
092613	10:56	1	f.bleeb	7	6484	5
092613	10:56	1	f.skeef	8	4088	3
092613	10:56	1	f.groosh	9	6211	2
092613	10:56	1	f.frape	10	5490	7
092613	10:56	1	f.grague	11	3508	5
092613	10:56	1	f.kwoze	12	8374	5
092613	10:56	1	f.kloof	13	4031	4
092613	10:56	1	f.groor	14	5996	3
092613	10:56	1	f.kwooch	15	5113	6
092613	10:56	1	f.bloog	16	7235	5
092613	10:56	1	f.boove	17	3090	5
092613	10:56	1	f.blale	18	3060	4
092613	10:56	1	f.twoosh	19	2616	6
092613	10:56	1	f.groshe	20	4748	4
092613	10:56	1	f.dwore	21	5734	4
092613	10:56	1	f.klape	22	3631	5
092613	10:56	1	f.krafe	23	7675	6
092613	10:56	1	f.thwooch	24	3976	5
092613	10:56	1	f.throop	25	6423	4
092613	10:56	1	f.thwove	26	2094	3
092613	10:56	1	f.shooch	27	3736	6
092613	10:56	1	f.skoose	28	3705	5
092613	10:56	1	f.blabe	29	3066	6
092613	10:56	1	f.feeg	30	2503	7
092613	10:56	1	f.jeeb	31	4361	4
092613	10:56	1	f.kroge	32	1928	3
092613	10:56	1	f.chool	33	4048	5
092613	10:56	1	f.klooch	34	4870	4
092613	10:56	1	f.yave	35	2082	6
092613	10:56	1	f.snane	36	4083	5
092613	10:56	1	f.floof	37	4239	6
092613	10:56	1	f.shrafe	38	3885	4
092613	10:56	1	f.gwoge	39	1664	3
092613	10:56	1	f.threesh	40	4179	6
092613	10:56	1	f.gleeth	41	4322	4
092613	10:56	1	f.skeesh	42	6259	3
092613	10:56	1	f.snoosh	43	3312	3
092613	10:56	1	f.thwore	44	12713	4
092613	10:56	1	f.shrone	45	4750	7
092613	10:56	1	f.dwoosh	46	2879	5
092613	10:56	1	f.freesh	47	4570	7
092613	10:56	1	f.stoosh	48	2474	4
092613	10:56	1	f.bleel	49	4388	4
092613	10:56	1	f.shooge	50	3899	4
092613	10:56	1	f.smome	51	3871	5
092613	10:56	1	f.floge	52	6714	4
092613	10:56	1	f.thrope	53	1573	6
092613	10:56	1	f.yogue	54	4644	5
092613	10:56	1	f.nobe	55	2921	4
092613	10:56	1	f.yofe	56	5146	6
092613	10:56	1	f.gooth	57	3467	4
092613	10:56	1	f.shage	58	5830	3
092613	10:56	1	f.preege	59	3172	6
092613	10:56	1	f.dogue	60	1876	7
092613	10:56	1	r.utensil	1	5908	5
092613	10:56	1	r.green	2	3631	8
092613	10:56	1	r.bed	3	2307	9
092613	10:56	1	r.appliance	4	3325	5
092613	10:56	1	r.joy	5	2062	9
092613	10:56	1	r.lottery	6	2240	9
092613	10:56	1	r.rage	7	2230	1
092613	10:56	1	r.slap	8	1450	1
092613	10:56	1	r.powerful	9	4742	3
092613	10:56	1	r.scalding	10	4397	1
092613	10:56	1	r.subdued	11	4915	5
092613	10:56	1	r.breast	12	3158	5
092613	10:56	1	r.pizza	13	3710	8
092613	10:56	1	r.lake	14	3568	8
092613	10:56	1	r.curious	15	4327	6
092613	10:56	1	r.plain	16	2664	5
092613	10:56	1	r.disgusted	17	2860	3
092613	10:56	1	r.cut	18	1559	2
092613	10:56	1	r.talent	19	2319	9
092613	10:56	1	r.safe	20	2000	9
092613	10:56	1	r.nonchalant	21	2198	5
092613	10:56	1	r.grime	22	1667	3
092613	10:56	1	r.brave	23	2262	9
092613	10:56	1	r.toy	24	2090	6
092613	10:56	1	r.cuddle	25	1716	7
092613	10:56	1	r.odd	26	2397	5
092613	10:56	1	r.mold	27	2610	4
092613	10:56	1	r.athletics	28	2904	7
092613	10:56	1	r.banner	29	3114	6
092613	10:56	1	r.immoral	30	3427	2
092613	10:56	1	r.garden	31	2568	7
092613	10:56	1	r.writer	32	1847	6
092613	10:56	1	r.dignified	33	2979	6
092613	10:56	1	r.dead	34	2018	1
092613	10:56	1	r.needle	35	1999	1
092613	10:56	1	r.girl	36	2189	5
092613	10:56	1	r.death	37	1730	1
092613	10:56	1	r.elated	38	2339	5
092613	10:56	1	r.ankle	39	1715	5
092613	10:56	1	r.lamb	40	2413	6
092613	10:56	1	r.abduction	41	4002	1
092613	10:56	1	r.malice	42	2521	3
092613	10:56	1	r.humiliate	43	1906	2
092613	10:56	1	r.name	44	2820	5
092613	10:56	1	r.suffocate	45	1521	1
092613	10:56	1	r.manure	46	2378	2
092613	10:56	1	r.bouquet	47	3656	8
092613	10:56	1	r.boxer	48	2948	3
092613	10:56	1	r.foul	49	1580	2
092613	10:56	1	r.trophy	50	2226	8
092613	10:56	1	r.useful	51	2056	6
092613	10:56	1	r.hungry	52	3307	3
092613	10:56	1	r.opinion	53	2277	5
092613	10:56	1	r.face	54	1208	5
092613	10:56	1	r.elbow	55	1094	5
092613	10:56	1	r.arm	56	927	5
092613	10:56	1	r.news	57	1382	5
092613	10:56	1	r.alley	58	3420	3
092613	10:56	1	r.coward	59	1947	2
092613	10:56	1	r.patient	60	3714	6
092613	10:56	1	howtype	1	13529	6
092613	12:01	1	speed	1	3211	47
092613	12:01	1	error	2	2283	76
092613	12:01	1	whichhand	3	9566	right
092613	12:01	1	r.lighthouse	1	10794	5
092613	12:01	1	r.curtains	2	6259	5
092613	12:01	1	r.coast	3	2127	6
092613	12:01	1	r.dinner	4	1616	7
092613	12:01	1	r.nonsense	5	3197	4
092613	12:01	1	r.sweetheart	6	2003	8
092613	12:01	1	r.tool	7	1697	5
092613	12:01	1	r.comfort	8	1610	9
092613	12:01	1	r.ugly	9	3655	2
092613	12:01	1	r.perfection	10	1548	9
092613	12:01	1	r.famous	11	1819	8
092613	12:01	1	r.appliance	12	2008	5
092613	12:01	1	r.legend	13	3358	8
092613	12:01	1	r.candy	14	1622	9
092613	12:01	1	r.metal	15	2123	5
092613	12:01	1	r.quart	16	1548	5
092613	12:01	1	r.fantasy	17	1628	6
092613	12:01	1	r.foot	18	2128	5
092613	12:01	1	r.death	19	2097	1
092613	12:01	1	r.applause	20	1747	8
092613	12:01	1	r.crucify	21	2418	1
092613	12:01	1	r.broken	22	1375	1
092613	12:01	1	r.paralysis	23	1566	1
092613	12:01	1	r.measles	24	2365	2
092613	12:01	1	r.nightmare	25	2116	1
092613	12:01	1	r.bastard	26	925	1
092613	12:01	1	r.tower	27	1742	5
092613	12:01	1	r.mad	28	2430	4
092613	12:01	1	r.carefree	29	3307	8
092613	12:01	1	r.handsome	30	1445	8
092613	12:01	1	r.imagine	31	1849	8
092613	12:01	1	r.chair	32	1732	5
092613	12:01	1	r.louse	33	1925	5
092613	12:01	1	r.vision	34	3102	5
092613	12:01	1	r.tumor	35	2296	1
092613	12:01	1	r.torture	36	1138	1
092613	12:01	1	r.thermometer	37	1898	5
092613	12:01	1	r.reunion	38	2028	8
092613	12:01	1	r.bouquet	39	1624	7
092613	12:01	1	r.kerchief	40	1765	5
092613	12:01	1	r.lottery	41	1740	9
092613	12:01	1	r.pizza	42	2916	8
092613	12:01	1	r.assault	43	1957	1
092613	12:01	1	r.snow	44	3229	7
092613	12:01	1	r.impressed	45	1978	9
092613	12:01	1	r.masterful	46	2560	6
092613	12:01	1	r.curious	47	1712	5
092613	12:01	1	r.hat	48	1001	5
092613	12:01	1	r.frustrated	49	1574	3
092613	12:01	1	r.rejected	50	1901	2
092613	12:01	1	r.talent	51	2726	8
092613	12:01	1	r.ocean	52	1647	9
092613	12:01	1	r.bake	53	1443	7
092613	12:01	1	r.luscious	54	2518	8
092613	12:01	1	r.plane	55	1992	7
092613	12:01	1	r.windmill	56	1670	6
092613	12:01	1	r.timid	57	2865	4
092613	12:01	1	r.alone	58	2108	2
092613	12:01	1	r.slum	59	1926	1
092613	12:01	1	r.dreadful	60	927	1
092613	12:01	1	f.thool	1	3600	5
092613	12:01	1	f.thwote	2	7718	5
092613	12:01	1	f.twashe	3	4529	4
092613	12:01	1	f.tage	4	4771	4
092613	12:01	1	f.nofe	5	2891	4
092613	12:01	1	f.zofe	6	3141	3
092613	12:01	1	f.breeg	7	4814	4
092613	12:01	1	f.chobe	8	2636	4
092613	12:01	1	f.swase	9	2897	4
092613	12:01	1	f.chathe	10	2251	5
092613	12:01	1	f.smase	11	2343	5
092613	12:01	1	f.threech	12	1287	5
092613	12:01	1	f.gleech	13	3937	6
092613	12:01	1	f.plathe	14	2810	6
092613	12:01	1	f.thoof	15	2087	4
092613	12:01	1	f.neeb	16	1290	4
092613	12:01	1	f.spobe	17	732	4
092613	12:01	1	f.jeeg	18	964	4
092613	12:01	1	f.veef	19	778	4
092613	12:01	1	f.bloshe	20	976	4
092613	12:01	1	f.nooch	21	950	4
092613	12:01	1	f.thague	22	942	4
092613	12:01	1	f.shroche	23	1334	4
092613	12:01	1	f.kwooze	24	2054	4
092613	12:01	1	f.swobe	25	1258	4
092613	12:01	1	f.poosh	26	1189	4
092613	12:01	1	f.gloke	27	715	4
092613	12:01	1	f.gwooge	28	1204	4
092613	12:01	1	f.thweer	29	985	4
092613	12:01	1	f.stothe	30	896	4
092613	12:01	1	f.steeg	31	1697	4
092613	12:01	1	f.kwape	32	931	4
092613	12:01	1	f.shreel	33	1498	5
092613	12:01	1	f.thweege	34	1220	4
092613	12:01	1	f.freeb	35	1017	4
092613	12:01	1	f.throol	36	1654	5
092613	12:01	1	f.thwoop	37	1561	4
092613	12:01	1	f.zashe	38	1344	4
092613	12:01	1	f.seeg	39	872	4
092613	12:01	1	f.klooch	40	794	4
092613	12:01	1	f.zeech	41	832	4
092613	12:01	1	f.thafe	42	1020	4
092613	12:01	1	f.plooge	43	2704	4
092613	12:01	1	f.kwame	44	650	4
092613	12:01	1	f.dwoog	45	630	4
092613	12:01	1	f.jafe	46	674	4
092613	12:01	1	f.voke	47	1099	4
092613	12:01	1	f.gwobe	48	558	4
092613	12:01	1	f.twape	49	725	4
092613	12:01	1	f.shroze	50	1181	4
092613	12:01	1	f.thwoosh	51	548	4
092613	12:01	1	f.thwape	52	675	4
092613	12:01	1	f.kleef	53	750	4
092613	12:01	1	f.zare	54	677	4
092613	12:01	1	f.gwache	55	711	4
092613	12:01	1	f.kloop	56	511	4
092613	12:01	1	f.moosh	57	632	4
092613	12:01	1	f.shrooth	58	860	4
092613	12:01	1	f.shrase	59	767	4
092613	12:01	1	f.pleer	60	637	4
092613	12:01	1	howtype	1	12208	7
092713	14:22	1	speed	1	3755	46
092713	14:22	1	error	2	2075	100
092713	14:22	1	whichhand	3	7886	right
092713	14:22	1	r.repentant	1	6623	3
092713	14:22	1	r.flood	2	3598	5
092713	14:22	1	r.spider	3	3332	7
092713	14:22	1	r.spray	4	1341	7
092713	14:22	1	r.gripe	5	2277	5
092713	14:22	1	r.habit	6	2672	8
092713	14:22	1	r.hand	7	1835	9
092713	14:22	1	r.alimony	8	3335	3
092713	14:22	1	r.jail	9	1960	9
092713	14:22	1	r.magical	10	1247	9
092713	14:22	1	r.decorate	11	1155	9
092713	14:22	1	r.disgusted	12	2050	8
092713	14:22	1	r.save	13	1606	9
092713	14:22	1	r.nectar	14	2155	5
092713	14:22	1	r.moment	15	1979	8
092713	14:22	1	r.pig	16	2146	9
092713	14:22	1	r.torture	17	1753	7
092713	14:22	1	r.fat	18	1465	9
092713	14:22	1	r.building	19	1348	8
092713	14:22	1	r.computer	20	1259	9
092713	14:22	1	r.hurricane	21	2462	6
092713	14:22	1	r.stove	22	3178	8
092713	14:22	1	r.treasure	23	2512	7
092713	14:22	1	r.refreshment	24	1354	7
092713	14:22	1	r.honor	25	2241	9
092713	14:22	1	r.hydrant	26	2421	7
092713	14:22	1	r.coin	27	1955	8
092713	14:22	1	r.blue	28	1387	9
092713	14:22	1	r.priest	29	2825	5
092713	14:22	1	r.paralysis	30	1630	4
092713	14:22	1	r.burdened	31	1674	4
092713	14:22	1	r.blossom	32	1429	5
092713	14:22	1	r.grief	33	1609	4
092713	14:22	1	r.slow	34	1782	9
092713	14:22	1	r.lake	35	965	9
092713	14:22	1	r.life	36	667	9
092713	14:22	1	r.revolver	37	1830	6
092713	14:22	1	r.displeased	38	1738	5
092713	14:22	1	r.tense	39	1467	9
092713	14:22	1	r.abduction	40	1486	7
092713	14:22	1	r.earth	41	1200	9
092713	14:22	1	r.wish	42	845	9
092713	14:22	1	r.joke	43	865	9
092713	14:22	1	r.vacation	44	1683	8
092713	14:22	1	r.grenade	45	1749	5
092713	14:22	1	r.divorce	46	1517	6
092713	14:22	1	r.palace	47	1998	6
092713	14:22	1	r.venom	48	2628	5
092713	14:22	1	r.sad	49	1928	9
092713	14:22	1	r.farm	50	889	9
092713	14:22	1	r.cold	51	5491	9
092713	14:22	1	r.ridicule	52	6662	4
092713	14:22	1	r.elated	53	2723	4
092713	14:22	1	r.traitor	54	2620	4
092713	14:22	1	r.rock	55	2730	9
092713	14:22	1	r.clouds	56	1050	9
092713	14:22	1	r.carefree	57	1222	9
092713	14:22	1	r.trash	58	986	9
092713	14:22	1	r.invest	59	2064	8
092713	14:22	1	r.lion	60	1124	9
092713	14:22	1	f.broge	1	2657	3
092713	14:22	1	f.preege	2	2309	3
092713	14:22	1	f.noog	3	1174	3
092713	14:22	1	f.twofe	4	2237	1
092713	14:22	1	f.feech	5	1369	2
092713	14:22	1	f.threege	6	1416	2
092713	14:22	1	f.nache	7	1125	3
092713	14:22	1	f.kroosh	8	1302	1
092713	14:22	1	f.twoog	9	759	1
092713	14:22	1	f.treek	10	1871	2
092713	14:22	1	f.zoot	11	1329	3
092713	14:22	1	f.yeeb	12	1866	2
092713	14:22	1	f.theef	13	1989	2
092713	14:22	1	f.tweel	14	1091	1
092713	14:22	1	f.yafe	15	1949	1
092713	14:22	1	f.skoshe	16	901	1
092713	14:22	1	f.gwope	17	694	1
092713	14:22	1	f.dwose	18	704	1
092713	14:22	1	f.sheech	19	2089	3
092713	14:22	1	f.prooge	20	2115	2
092713	14:22	1	f.moosh	21	1197	2
092713	14:22	1	f.tweep	22	1410	1
092713	14:22	1	f.prape	23	1367	1
092713	14:22	1	f.cheeg	24	1670	3
092713	14:22	1	f.kreeb	25	1081	3
092713	14:22	1	f.klache	26	1283	1
092713	14:22	1	f.zothe	27	629	1
092713	14:22	1	f.shrage	28	713	1
092713	14:22	1	f.greeb	29	1409	2
092713	14:22	1	f.spoop	30	2062	2
092713	14:22	1	f.gwoke	31	1313	1
092713	14:22	1	f.yague	32	658	1
092713	14:22	1	f.swofe	33	1414	1
092713	14:22	1	f.jame	34	1178	2
092713	14:22	1	f.shogue	35	1137	1
092713	14:22	1	f.dwoog	36	689	1
092713	14:22	1	f.shrafe	37	859	1
092713	14:22	1	f.dwofe	38	758	1
092713	14:22	1	f.gweep	39	1077	1
092713	14:22	1	f.gleeth	40	1591	2
092713	14:22	1	f.thwoon	41	1277	1
092713	14:22	1	f.kwome	42	7896	3
092713	14:22	1	f.stafe	43	2156	2
092713	14:22	1	f.blogue	44	1547	1
092713	14:22	1	f.thwathe	45	739	1
092713	14:22	1	f.trafe	46	6618	3
092713	14:22	1	f.wague	47	2129	3
092713	14:22	1	f.plape	48	1642	3
092713	14:22	1	f.drood	49	1382	2
092713	14:22	1	f.slogue	50	1156	2
092713	14:22	1	f.dobe	51	932	2
092713	14:22	1	f.flooge	52	1076	2
092713	14:22	1	f.kweem	53	975	1
092713	14:22	1	f.yone	54	1285	1
092713	14:22	1	f.shroof	55	743	1
092713	14:22	1	f.chothe	56	1543	1
092713	14:22	1	f.boosh	57	1198	2
092713	14:22	1	f.glooch	58	1588	1
092713	14:22	1	f.kwoob	59	1146	1
092713	14:22	1	f.beesh	60	1289	2
092713	14:22	1	howtype	1	11922	6
093013	15:30	1	speed	1	2708	47
093013	15:30	1	error	2	1843	100
093013	15:30	1	whichhand	3	5424	right
093013	15:30	1	f.drabe	1	11838	3
093013	15:30	1	f.shrare	2	8158	6
093013	15:30	1	f.yobe	3	6159	5
093013	15:30	1	f.zathe	4	16351	6
093013	15:30	1	f.smaze	5	7325	9
093013	15:30	1	f.plape	6	4735	5
093013	15:30	1	f.leech	7	3672	2
093013	15:30	1	f.greech	8	3660	2
093013	15:30	1	f.gloke	9	5064	3
093013	15:30	1	f.kreech	10	2828	1
093013	15:30	1	f.droot	11	2424	5
093013	15:30	1	f.dache	12	8269	5
093013	15:30	1	f.plool	13	1875	7
093013	15:30	1	f.kloob	14	4998	6
093013	15:30	1	f.prache	15	2949	2
093013	15:30	1	f.dweese	16	3021	1
093013	15:30	1	f.yoge	17	5810	6
093013	15:30	1	f.frope	18	3544	8
093013	15:30	1	f.voke	19	3753	3
093013	15:30	1	f.frooth	20	8057	8
093013	15:30	1	f.krobe	21	5118	3
093013	15:30	1	f.spooge	22	6520	1
093013	15:30	1	f.thoof	23	7459	2
093013	15:30	1	f.yeem	24	6736	4
093013	15:30	1	f.thwool	25	3466	5
093013	15:30	1	f.steef	26	2774	6
093013	15:30	1	f.thole	27	7005	3
093013	15:30	1	f.gooth	28	2285	5
093013	15:30	1	f.dwoke	29	3431	4
093013	15:30	1	f.trooge	30	11019	3
093013	15:30	1	f.jome	31	3988	5
093013	15:30	1	f.weech	32	3819	2
093013	15:30	1	f.throoge	33	8329	4
093013	15:30	1	f.slode	34	15611	5
093013	15:30	1	f.twose	35	4589	9
093013	15:30	1	f.twogue	36	3485	7
093013	15:30	1	f.tweeth	37	3591	6
093013	15:30	1	f.throgue	38	3302	5
093013	15:30	1	f.skome	39	3736	7
093013	15:30	1	f.shroon	40	2769	4
093013	15:30	1	f.snague	41	7345	5
093013	15:30	1	f.zoke	42	14034	6
093013	15:30	1	f.throve	43	2611	5
093013	15:30	1	f.slabe	44	2799	8
093013	15:30	1	f.smoshe	45	1910	9
093013	15:30	1	f.dweek	46	4543	4
093013	15:30	1	f.plope	47	4416	6
093013	15:30	1	f.throok	48	2766	5
093013	15:30	1	f.droge	49	2861	4
093013	15:30	1	f.swoog	50	2201	7
093013	15:30	1	f.sweeb	51	2430	5
093013	15:30	1	f.yague	52	4467	3
093013	15:30	1	f.snoose	53	3591	5
093013	15:30	1	f.yone	54	3670	4
093013	15:30	1	f.dwope	55	3546	2
093013	15:30	1	f.thoog	56	7785	3
093013	15:30	1	f.shose	57	1858	7
093013	15:30	1	f.fleeth	58	3246	6
093013	15:30	1	f.shrooth	59	2026	5
093013	15:30	1	f.peeth	60	5974	4
093013	15:30	1	r.pride	1	5090	8
093013	15:30	1	r.truck	2	3829	5
093013	15:30	1	r.door	3	3378	6
093013	15:30	1	r.dirty	4	2889	1
093013	15:30	1	r.trophy	5	2372	9
093013	15:30	1	r.prestige	6	2891	8
093013	15:30	1	r.swamp	7	2102	2
093013	15:30	1	r.hammer	8	4768	5
093013	15:30	1	r.bus	9	2536	7
093013	15:30	1	r.sentiment	10	1688	8
093013	15:30	1	r.fame	11	5059	8
093013	15:30	1	r.dazzle	12	2375	9
093013	15:30	1	r.basket	13	2774	5
093013	15:30	1	r.smallpox	14	1805	1
093013	15:30	1	r.inspire	15	1962	9
093013	15:30	1	r.sapphire	16	2178	7
093013	15:30	1	r.yacht	17	2528	5
093013	15:30	1	r.young	18	3249	4
093013	15:30	1	r.haphazard	19	2221	4
093013	15:30	1	r.alive	20	2162	9
093013	15:30	1	r.failure	21	1794	1
093013	15:30	1	r.hawk	22	2519	3
093013	15:30	1	r.war	23	2296	1
093013	15:30	1	r.snob	24	1778	2
093013	15:30	1	r.nasty	25	2521	2
093013	15:30	1	r.suspicious	26	2986	6
093013	15:30	1	r.kerchief	27	2648	5
093013	15:30	1	r.jolly	28	1972	7
093013	15:30	1	r.slime	29	2292	4
093013	15:30	1	r.fever	30	1614	3
093013	15:30	1	r.starving	31	1699	1
093013	15:30	1	r.louse	32	2357	2
093013	15:30	1	r.infant	33	2564	5
093013	15:30	1	r.indifferent	34	5627	5
093013	15:30	1	r.horror	35	1873	1
093013	15:30	1	r.identity	36	2212	7
093013	15:30	1	r.movie	37	1778	8
093013	15:30	1	r.applause	38	1432	8
093013	15:30	1	r.leprosy	39	2148	2
093013	15:30	1	r.kick	40	2828	5
093013	15:30	1	r.snake	41	1601	1
093013	15:30	1	r.agreement	42	2102	9
093013	15:30	1	r.ship	43	1840	5
093013	15:30	1	r.sugar	44	2356	7
093013	15:30	1	r.hungry	45	5044	5
093013	15:30	1	r.enraged	46	1969	3
093013	15:30	1	r.excuse	47	3496	4
093013	15:30	1	r.frustrated	48	2858	3
093013	15:30	1	r.danger	49	1550	4
093013	15:30	1	r.crutch	50	4286	2
093013	15:30	1	r.girl	51	1857	5
093013	15:30	1	r.bold	52	2237	8
093013	15:30	1	r.crucify	53	2497	3
093013	15:30	1	r.insect	54	2395	4
093013	15:30	1	r.mighty	55	2297	6
093013	15:30	1	r.scurvy	56	3930	5
093013	15:30	1	r.romantic	57	1931	6
093013	15:30	1	r.elbow	58	2820	7
093013	15:30	1	r.embattled	59	2098	3
093013	15:30	1	r.thief	60	2731	1
093013	15:30	1	howtype	1	24691	5
100113	11:30	1	speed	1	3355	56
100113	11:30	1	error	2	1683	96
100113	11:30	1	whichhand	3	7886	Left
100113	11:30	1	f.froog	1	4815	4
100113	11:30	1	f.greeg	2	2213	2
100113	11:30	1	f.foop	3	2818	6
100113	11:30	1	f.yoze	4	2232	5
100113	11:30	1	f.twoche	5	4044	6
100113	11:30	1	f.swogue	6	1785	7
100113	11:30	1	f.thwooch	7	2487	8
100113	11:30	1	f.chathe	8	1682	4
100113	11:30	1	f.sweese	9	1268	5
100113	11:30	1	f.chode	10	1839	1
100113	11:30	1	f.skose	11	1314	2
100113	11:30	1	f.twome	12	1596	1
100113	11:30	1	f.bloove	13	2217	7
100113	11:30	1	f.trabe	14	2271	6
100113	11:30	1	f.klode	15	2354	4
100113	11:30	1	f.shroon	16	1906	6
100113	11:30	1	f.thothe	17	1794	5
100113	11:30	1	f.twoshe	18	2817	6
100113	11:30	1	f.twabe	19	2157	3
100113	11:30	1	f.thathe	20	2174	6
100113	11:30	1	f.veeb	21	2085	8
100113	11:30	1	f.frache	22	2167	9
100113	11:30	1	f.jeem	23	1687	7
100113	11:30	1	f.gooch	24	1705	1
100113	11:30	1	f.prote	25	1899	7
100113	11:30	1	f.jothe	26	1932	5
100113	11:30	1	f.kwome	27	2237	3
100113	11:30	1	f.weeth	28	2777	6
100113	11:30	1	f.thwafe	29	2127	1
100113	11:30	1	f.twooth	30	2008	6
100113	11:30	1	f.ploove	31	1686	8
100113	11:30	1	f.brashe	32	1232	8
100113	11:30	1	f.sname	33	1941	4
100113	11:30	1	f.gwofe	34	1909	1
100113	11:30	1	f.snase	35	1822	7
100113	11:30	1	f.brothe	36	1875	9
100113	11:30	1	f.zape	37	1558	9
100113	11:30	1	f.beesh	38	1573	7
100113	11:30	1	f.tofe	39	1469	4
100113	11:30	1	f.kwoche	40	1951	1
100113	11:30	1	f.thofe	41	1295	3
100113	11:30	1	f.zoof	42	3016	6
100113	11:30	1	f.skoosh	43	1998	9
100113	11:30	1	f.twoor	44	1884	8
100113	11:30	1	f.choob	45	1574	7
100113	11:30	1	f.drogue	46	1701	5
100113	11:30	1	f.drobe	47	1430	7
100113	11:30	1	f.speeb	48	2355	8
100113	11:30	1	f.grore	49	1539	5
100113	11:30	1	f.zooge	50	2379	9
100113	11:30	1	f.soob	51	1865	9
100113	11:30	1	f.thwode	52	1477	1
100113	11:30	1	f.zood	53	1367	9
100113	11:30	1	f.kloob	54	1333	8
100113	11:30	1	f.yave	55	2286	7
100113	11:30	1	f.mobe	56	1672	4
100113	11:30	1	f.brabe	57	2555	6
100113	11:30	1	f.yeese	58	1803	9
100113	11:30	1	f.dweech	59	1865	7
100113	11:30	1	f.yeet	60	1300	8
100113	11:30	1	r.hungry	1	3371	8
100113	11:30	1	r.kettle	2	2139	4
100113	11:30	1	r.kindness	3	1555	9
100113	11:30	1	r.whistle	4	1179	8
100113	11:30	1	r.hand	5	1593	9
100113	11:30	1	r.betray	6	1351	1
100113	11:30	1	r.lawsuit	7	1230	1
100113	11:30	1	r.paint	8	1482	7
100113	11:30	1	r.river	9	1717	9
100113	11:30	1	r.spring	10	1213	9
100113	11:30	1	r.garbage	11	2026	2
100113	11:30	1	r.lion	12	1319	8
100113	11:30	1	r.mighty	13	1208	8
100113	11:30	1	r.pretty	14	1373	9
100113	11:30	1	r.tune	15	1451	7
100113	11:30	1	r.trouble	16	1607	2
100113	11:30	1	r.engine	17	2293	5
100113	11:30	1	r.appliance	18	1415	5
100113	11:30	1	r.hell	19	1524	1
100113	11:30	1	r.crude	20	1357	2
100113	11:30	1	r.cuisine	21	1492	9
100113	11:30	1	r.rabies	22	1798	1
100113	11:30	1	r.foam	23	1492	9
100113	11:30	1	r.loved	24	1262	9
100113	11:30	1	r.avenue	25	2088	5
100113	11:30	1	r.hotel	26	1507	6
100113	11:30	1	r.abduction	27	1932	1
100113	11:30	1	r.pamphlet	28	3413	5
100113	11:30	1	r.subdued	29	1730	4
100113	11:30	1	r.agility	30	1618	8
100113	11:30	1	r.cottage	31	1447	7
100113	11:30	1	r.snake	32	2419	2
100113	11:30	1	r.save	33	1696	8
100113	11:30	1	r.person	34	1106	7
100113	11:30	1	r.bloody	35	1467	3
100113	11:30	1	r.infant	36	1422	9
100113	11:30	1	r.messy	37	1435	5
100113	11:30	1	r.earth	38	1383	8
100113	11:30	1	r.flirt	39	1157	8
100113	11:30	1	r.kitten	40	1421	9
100113	11:30	1	r.market	41	1786	6
100113	11:30	1	r.cellar	42	1128	5
100113	11:30	1	r.color	43	1304	8
100113	11:30	1	r.hairpin	44	2066	7
100113	11:30	1	r.cannon	45	2461	5
100113	11:30	1	r.father	46	1360	7
100113	11:30	1	r.barrel	47	1599	4
100113	11:30	1	r.space	48	1532	5
100113	11:30	1	r.frustrated	49	1381	1
100113	11:30	1	r.haphazard	50	1731	4
100113	11:30	1	r.nightmare	51	1923	3
100113	11:30	1	r.burn	52	1884	2
100113	11:30	1	r.puppy	53	1319	9
100113	11:30	1	r.excellence	54	1119	8
100113	11:30	1	r.pest	55	1576	4
100113	11:30	1	r.riches	56	1198	8
100113	11:30	1	r.prison	57	1508	1
100113	11:30	1	r.elbow	58	1581	5
100113	11:30	1	r.doll	59	1236	6
100113	11:30	1	r.loneliness	60	1568	2
100113	11:30	1	howtype	1	14517	3
100113	12:34	1	speed	1	3126	55
100113	12:34	1	error	2	2166	94
100113	12:34	1	whichhand	3	8119	Right
100113	12:34	1	f.klade	1	21409	5
100113	12:34	1	f.thashe	2	6997	4
100113	12:34	1	f.gwoke	3	3757	7
100113	12:34	1	f.throor	4	6413	6
100113	12:34	1	f.bloob	5	4995	8
100113	12:34	1	f.dreese	6	3746	6
100113	12:34	1	f.dwoove	7	6611	6
100113	12:34	1	f.shogue	8	4929	5
100113	12:34	1	f.frabe	9	4139	5
100113	12:34	1	f.sweeth	10	2724	4
100113	12:34	1	f.shreese	11	6333	4
100113	12:34	1	f.leech	12	7015	3
100113	12:34	1	f.dweeze	13	13213	3
100113	12:34	1	f.tafe	14	3223	3
100113	12:34	1	f.thave	15	3252	4
100113	12:34	1	f.yeeb	16	5296	6
100113	12:34	1	f.skeeth	17	5843	5
100113	12:34	1	f.kwood	18	4557	8
100113	12:34	1	f.twoove	19	6104	6
100113	12:34	1	f.gweeve	20	10435	4
100113	12:34	1	f.kreech	21	5755	3
100113	12:34	1	f.shreep	22	3164	4
100113	12:34	1	f.kreesh	23	6995	3
100113	12:34	1	f.pame	24	5945	3
100113	12:34	1	f.bleef	25	4834	8
100113	12:34	1	f.yoof	26	3496	8
100113	12:34	1	f.shroge	27	4131	3
100113	12:34	1	f.shroove	28	6468	4
100113	12:34	1	f.boove	29	4273	4
100113	12:34	1	f.droot	30	3813	7
100113	12:34	1	f.skose	31	3290	5
100113	12:34	1	f.thweem	32	10892	5
100113	12:34	1	f.poosh	33	3729	6
100113	12:34	1	f.blafe	34	3274	5
100113	12:34	1	f.proop	35	3189	4
100113	12:34	1	f.gloge	36	2908	4
100113	12:34	1	f.vove	37	2669	5
100113	12:34	1	f.froche	38	3705	6
100113	12:34	1	f.thoshe	39	2852	6
100113	12:34	1	f.twoose	40	2336	7
100113	12:34	1	f.cheem	41	4272	7
100113	12:34	1	f.jague	42	10692	5
100113	12:34	1	f.blale	43	5841	5
100113	12:34	1	f.shoog	44	1877	4
100113	12:34	1	f.spave	45	16105	5
100113	12:34	1	f.gwoosh	46	4447	7
100113	12:34	1	f.krafe	47	3331	4
100113	12:34	1	f.gleech	48	3020	7
100113	12:34	1	f.zothe	49	6698	2
100113	12:34	1	f.peeth	50	5397	4
100113	12:34	1	f.freesh	51	6140	7
100113	12:34	1	f.smade	52	3310	4
100113	12:34	1	f.prooch	53	3495	5
100113	12:34	1	f.krage	54	3834	4
100113	12:34	1	f.thwook	55	3566	6
100113	12:34	1	f.throof	56	4622	5
100113	12:34	1	f.yove	57	5308	5
100113	12:34	1	f.shroose	58	3974	5
100113	12:34	1	f.bleel	59	3286	7
100113	12:34	1	f.thole	60	5425	5
100113	12:34	1	r.killer	1	7544	1
100113	12:34	1	r.brave	2	7762	8
100113	12:34	1	r.coward	3	2747	1
100113	12:34	1	r.detail	4	3931	5
100113	12:34	1	r.bathroom	5	3429	4
100113	12:34	1	r.beauty	6	8825	7
100113	12:34	1	r.pet	7	3760	6
100113	12:34	1	r.serious	8	2400	4
100113	12:34	1	r.honey	9	5862	7
100113	12:34	1	r.sphere	10	5146	6
100113	12:34	1	r.messy	11	2115	4
100113	12:34	1	r.injury	12	2428	2
100113	12:34	1	r.resent	13	1585	1
100113	12:34	1	r.lice	14	1959	3
100113	12:34	1	r.immoral	15	1478	1
100113	12:34	1	r.handicap	16	3720	3
100113	12:34	1	r.mutation	17	5306	2
100113	12:34	1	r.mighty	18	3757	8
100113	12:34	1	r.alone	19	1732	1
100113	12:34	1	r.office	20	2093	5
100113	12:34	1	r.snuggle	21	3575	9
100113	12:34	1	r.rigid	22	2630	2
100113	12:34	1	r.option	23	2506	5
100113	12:34	1	r.sin	24	1653	1
100113	12:34	1	r.spirit	25	2120	9
100113	12:34	1	r.joyful	26	1825	9
100113	12:34	1	r.people	27	4774	5
100113	12:34	1	r.unhappy	28	4934	2
100113	12:34	1	r.avenue	29	3600	6
100113	12:34	1	r.king	30	7318	4
100113	12:34	1	r.cane	31	3745	6
100113	12:34	1	r.sugar	32	4153	7
100113	12:34	1	r.restaurant	33	4226	5
100113	12:34	1	r.kitten	34	2727	8
100113	12:34	1	r.destruction	35	2888	1
100113	12:34	1	r.gentle	36	2203	9
100113	12:34	1	r.grief	37	1984	2
100113	12:34	1	r.loyal	38	4775	8
100113	12:34	1	r.nuisance	39	3662	1
100113	12:34	1	r.annoy	40	2737	2
100113	12:34	1	r.family	41	2146	9
100113	12:34	1	r.bold	42	2986	7
100113	12:34	1	r.market	43	2921	5
100113	12:34	1	r.natural	44	2594	7
100113	12:34	1	r.radiant	45	2048	9
100113	12:34	1	r.needle	46	2340	2
100113	12:34	1	r.bastard	47	4748	2
100113	12:34	1	r.detached	48	3477	3
100113	12:34	1	r.hungry	49	3120	3
100113	12:34	1	r.priest	50	3082	6
100113	12:34	1	r.vagina	51	3884	4
100113	12:34	1	r.yacht	52	6151	5
100113	12:34	1	r.runner	53	1936	6
100113	12:34	1	r.crushed	54	2201	2
100113	12:34	1	r.morgue	55	2455	3
100113	12:34	1	r.fall	56	2842	5
100113	12:34	1	r.safe	57	1639	7
100113	12:34	1	r.masturbate	58	2107	1
100113	12:34	1	r.success	59	6932	7
100113	12:34	1	r.leisurely	60	4846	6
100113	12:34	1	howtype	1	46601	5
100113	14:01	1	speed	1	3508	62
100113	14:01	1	error	2	1792	100
100113	14:01	1	whichhand	3	7430	Right
100113	14:01	1	f.thafe	1	8586	3
100113	14:01	1	f.brobe	2	5090	2
100113	14:01	1	f.proot	3	2766	2
100113	14:01	1	f.pame	4	2573	4
100113	14:01	1	f.broor	5	3717	5
100113	14:01	1	f.freef	6	4190	8
100113	14:01	1	f.thone	7	3294	9
100113	14:01	1	f.gwore	8	2799	1
100113	14:01	1	f.grobe	9	3372	2
100113	14:01	1	f.jome	10	5188	6
100113	14:01	1	f.krare	11	2786	4
100113	14:01	1	f.dreeg	12	2330	3
100113	14:01	1	f.feeg	13	3106	1
100113	14:01	1	f.chome	14	2284	8
100113	14:01	1	f.swogue	15	3375	9
100113	14:01	1	f.tage	16	4198	5
100113	14:01	1	f.woche	17	2932	6
100113	14:01	1	f.skave	18	3029	3
100113	14:01	1	f.stoose	19	12594	4
100113	14:01	1	f.joob	20	1796	3
100113	14:01	1	f.gwove	21	2665	7
100113	14:01	1	f.poshe	22	12572	5
100113	14:01	1	f.thwafe	23	4134	7
100113	14:01	1	f.teef	24	4880	3
100113	14:01	1	f.plare	25	3723	7
100113	14:01	1	f.deeg	26	3749	2
100113	14:01	1	f.bashe	27	3037	6
100113	14:01	1	f.soob	28	3674	6
100113	14:01	1	f.fooch	29	4774	8
100113	14:01	1	f.thweeg	30	2478	9
100113	14:01	1	f.kwoop	31	7552	6
100113	14:01	1	f.prage	32	3410	4
100113	14:01	1	f.gwoof	33	3207	8
100113	14:01	1	f.tweem	34	2733	9
100113	14:01	1	f.smode	35	5518	7
100113	14:01	1	f.flape	36	3552	3
100113	14:01	1	f.smape	37	3809	5
100113	14:01	1	f.chame	38	2766	2
100113	14:01	1	f.shrope	39	3054	3
100113	14:01	1	f.drobe	40	6986	6
100113	14:01	1	f.vape	41	2714	7
100113	14:01	1	f.thwaze	42	3651	2
100113	14:01	1	f.gwafe	43	5439	1
100113	14:01	1	f.twabe	44	3661	2
100113	14:01	1	f.smashe	45	7201	4
100113	14:01	1	f.kreech	46	2976	6
100113	14:01	1	f.prook	47	5159	3
100113	14:01	1	f.veek	48	2159	7
100113	14:01	1	f.swove	49	2542	9
100113	14:01	1	f.zooth	50	2462	3
100113	14:01	1	f.geeth	51	2073	7
100113	14:01	1	f.mabe	52	2781	5
100113	14:01	1	f.sleed	53	3571	2
100113	14:01	1	f.yoosh	54	10251	6
100113	14:01	1	f.smeege	55	5609	2
100113	14:01	1	f.flope	56	2216	4
100113	14:01	1	f.freeve	57	2453	7
100113	14:01	1	f.thrague	58	11609	2
100113	14:01	1	f.nobe	59	5729	4
100113	14:01	1	f.swofe	60	8186	4
100113	14:01	1	r.leader	1	4914	9
100113	14:01	1	r.river	2	3764	9
100113	14:01	1	r.identity	3	4851	6
100113	14:01	1	r.fall	4	2880	4
100113	14:01	1	r.medicine	5	2915	3
100113	14:01	1	r.intercourse	6	8564	6
100113	14:01	1	r.virtue	7	2238	8
100113	14:01	1	r.habit	8	6042	5
100113	14:01	1	r.bed	9	4623	8
100113	14:01	1	r.gold	10	1429	9
100113	14:01	1	r.spanking	11	2842	3
100113	14:01	1	r.lavish	12	2750	7
100113	14:01	1	r.hurricane	13	4350	1
100113	14:01	1	r.vandal	14	2615	1
100113	14:01	1	r.sick	15	3796	3
100113	14:01	1	r.grenade	16	3082	4
100113	14:01	1	r.dustpan	17	3613	5
100113	14:01	1	r.social	18	1843	5
100113	14:01	1	r.rejected	19	2590	3
100113	14:01	1	r.lazy	20	1421	2
100113	14:01	1	r.confident	21	1858	7
100113	14:01	1	r.vampire	22	4350	3
100113	14:01	1	r.neglect	23	1390	2
100113	14:01	1	r.god	24	8596	7
100113	14:01	1	r.measles	25	2972	1
100113	14:01	1	r.hairdryer	26	2196	5
100113	14:01	1	r.mutation	27	3217	5
100113	14:01	1	r.errand	28	1319	5
100113	14:01	1	r.louse	29	1848	1
100113	14:01	1	r.prairie	30	2180	6
100113	14:01	1	r.vomit	31	1362	1
100113	14:01	1	r.palace	32	3481	8
100113	14:01	1	r.elevator	33	3908	6
100113	14:01	1	r.soft	34	2974	9
100113	14:01	1	r.terrible	35	1502	1
100113	14:01	1	r.enjoyment	36	2735	7
100113	14:01	1	r.nourish	37	4056	9
100113	14:01	1	r.aloof	38	3988	4
100113	14:01	1	r.hydrant	39	1692	5
100113	14:01	1	r.heart	40	6686	7
100113	14:01	1	r.venom	41	2706	1
100113	14:01	1	r.bland	42	3236	2
100113	14:01	1	r.impressed	43	2705	6
100113	14:01	1	r.restaurant	44	3626	5
100113	14:01	1	r.triumph	45	8696	8
100113	14:01	1	r.dentist	46	3452	3
100113	14:01	1	r.kids	47	3728	6
100113	14:01	1	r.party	48	2777	7
100113	14:01	1	r.alley	49	4047	6
100113	14:01	1	r.butter	50	1652	7
100113	14:01	1	r.horror	51	2047	3
100113	14:01	1	r.wagon	52	1323	5
100113	14:01	1	r.daylight	53	2204	7
100113	14:01	1	r.context	54	2658	4
100113	14:01	1	r.anxious	55	2254	2
100113	14:01	1	r.outstanding	56	2186	9
100113	14:01	1	r.foul	57	1440	1
100113	14:01	1	r.event	58	1796	5
100113	14:01	1	r.finger	59	1938	6
100113	14:01	1	r.people	60	3266	7
100113	14:01	1	howtype	1	18228	6
100113	14:30	1	speed	1	4202	53
100113	14:30	1	error	2	1795	88
100113	14:30	1	whichhand	3	11130	Right
100113	14:30	1	r.dummy	1	11477	6
100113	14:30	1	r.social	2	6458	9
100113	14:30	1	r.salute	3	4023	8
100113	14:30	1	r.merry	4	3405	9
100113	14:30	1	r.obnoxious	5	6107	5
100113	14:30	1	r.dignified	6	2494	9
100113	14:30	1	r.sissy	7	5440	5
100113	14:30	1	r.daylight	8	2278	8
100113	14:30	1	r.cell	9	3112	7
100113	14:30	1	r.alert	10	3514	3
100113	14:30	1	r.meek	11	2059	6
100113	14:30	1	r.wicked	12	5094	4
100113	14:30	1	r.indifferent	13	1857	5
100113	14:30	1	r.red	14	3997	7
100113	14:30	1	r.delayed	15	3059	4
100113	14:30	1	r.rancid	16	2647	1
100113	14:30	1	r.suicide	17	1506	1
100113	14:30	1	r.vest	18	4660	5
100113	14:30	1	r.yacht	19	3624	8
100113	14:30	1	r.honey	20	1790	8
100113	14:30	1	r.fraud	21	1692	3
100113	14:30	1	r.lake	22	2319	7
100113	14:30	1	r.church	23	2272	7
100113	14:30	1	r.medicine	24	6635	5
100113	14:30	1	r.terrific	25	2545	9
100113	14:30	1	r.brutal	26	2033	2
100113	14:30	1	r.vagina	27	3645	8
100113	14:30	1	r.exercise	28	1538	7
100113	14:30	1	r.bench	29	4698	5
100113	14:30	1	r.virgin	30	2932	5
100113	14:30	1	r.tragedy	31	3429	1
100113	14:30	1	r.torture	32	1834	1
100113	14:30	1	r.wise	33	1455	8
100113	14:30	1	r.disgusted	34	2682	2
100113	14:30	1	r.mutilate	35	1597	1
100113	14:30	1	r.air	36	2762	7
100113	14:30	1	r.alien	37	3834	4
100113	14:30	1	r.cannon	38	1623	5
100113	14:30	1	r.beautiful	39	2220	9
100113	14:30	1	r.perfume	40	3825	7
100113	14:30	1	r.mighty	41	3150	7
100113	14:30	1	r.toothache	42	1790	2
100113	14:30	1	r.miracle	43	2132	9
100113	14:30	1	r.terrified	44	3117	2
100113	14:30	1	r.funeral	45	1438	1
100113	14:30	1	r.selfish	46	2874	3
100113	14:30	1	r.plant	47	2606	5
100113	14:30	1	r.phase	48	2492	5
100113	14:30	1	r.lottery	49	3862	6
100113	14:30	1	r.engine	50	3754	5
100113	14:30	1	r.scurvy	51	2242	2
100113	14:30	1	r.ambition	52	1942	8
100113	14:30	1	r.angry	53	2182	3
100113	14:30	1	r.glass	54	3876	5
100113	14:30	1	r.prestige	55	1880	9
100113	14:30	1	r.grin	56	4178	7
100113	14:30	1	r.patient	57	2617	5
100113	14:30	1	r.fat	58	2630	4
100113	14:30	1	r.orchestra	59	1867	6
100113	14:30	1	r.mind	60	1990	5
100113	14:30	1	f.shreer	1	5577	4
100113	14:30	1	f.gwame	2	4856	5
100113	14:30	1	f.veem	3	3861	5
100113	14:30	1	f.zache	4	5161	6
100113	14:30	1	f.leech	5	4137	3
100113	14:30	1	f.kweem	6	3554	6
100113	14:30	1	f.smoosh	7	2674	7
100113	14:30	1	f.pleer	8	4270	5
100113	14:30	1	f.gleech	9	3202	4
100113	14:30	1	f.doog	10	6280	6
100113	14:30	1	f.prooth	11	7235	3
100113	14:30	1	f.teeve	12	5194	5
100113	14:30	1	f.bleesh	13	3577	4
100113	14:30	1	f.shreef	14	8016	3
100113	14:30	1	f.shreet	15	4335	4
100113	14:30	1	f.breesh	16	3704	6
100113	14:30	1	f.chogue	17	3642	4
100113	14:30	1	f.gwoove	18	2271	7
100113	14:30	1	f.blashe	19	4554	5
100113	14:30	1	f.skave	20	3954	4
100113	14:30	1	f.proche	21	3787	5
100113	14:30	1	f.flape	22	6482	6
100113	14:30	1	f.gwoor	23	3150	3
100113	14:30	1	f.gloche	24	3598	4
100113	14:30	1	f.zade	25	3932	6
100113	14:30	1	f.twooge	26	7093	5
100113	14:30	1	f.vofe	27	2657	5
100113	14:30	1	f.yoom	28	2941	7
100113	14:30	1	f.prake	29	5358	5
100113	14:30	1	f.dreeth	30	2567	4
100113	14:30	1	f.skoshe	31	4078	6
100113	14:30	1	f.ploof	32	4001	7
100113	14:30	1	f.dwade	33	3447	6
100113	14:30	1	f.shobe	34	4635	4
100113	14:30	1	f.fleege	35	17049	4
100113	14:30	1	f.throde	36	6698	5
100113	14:30	1	f.zare	37	7709	5
100113	14:30	1	f.geeth	38	9568	6
100113	14:30	1	f.nathe	39	8762	4
100113	14:30	1	f.frabe	40	3867	3
100113	14:30	1	f.yoose	41	3855	6
100113	14:30	1	f.slood	42	5683	5
100113	14:30	1	f.pleep	43	4103	8
100113	14:30	1	f.shrote	44	3506	3
100113	14:30	1	f.kwoob	45	2908	6
100113	14:30	1	f.gloog	46	3654	7
100113	14:30	1	f.gwale	47	4122	3
100113	14:30	1	f.bleel	48	4228	4
100113	14:30	1	f.zathe	49	7569	5
100113	14:30	1	f.drabe	50	4210	3
100113	14:30	1	f.sheeg	51	5136	5
100113	14:30	1	f.teeg	52	9465	4
100113	14:30	1	f.zoop	53	2751	8
100113	14:30	1	f.sneen	54	3183	5
100113	14:30	1	f.thwole	55	4510	3
100113	14:30	1	f.yeese	56	7552	4
100113	14:30	1	f.tweeb	57	2298	2
100113	14:30	1	f.shrome	58	4355	3
100113	14:30	1	f.smeese	59	4436	2
100113	14:30	1	f.thwoche	60	7225	3
100113	14:30	1	howtype	1	21766	6
100213	13:27	1	speed	1	3526	46
100213	13:27	1	error	2	1935	97
100213	13:27	1	whichhand	3	10879	Left
100213	13:27	1	f.kweem	1	14439	5
100213	13:27	1	f.speeth	2	3344	4
100213	13:27	1	f.kogue	3	2640	5
100213	13:27	1	f.sneef	4	2741	3
100213	13:27	1	f.gwofe	5	2277	4
100213	13:27	1	f.droose	6	1672	7
100213	13:27	1	f.glashe	7	7978	4
100213	13:27	1	f.swame	8	1924	6
100213	13:27	1	f.kroshe	9	2572	7
100213	13:27	1	f.throob	10	1836	7
100213	13:27	1	f.chame	11	2865	8
100213	13:27	1	f.speege	12	1986	8
100213	13:27	1	f.jeeth	13	3874	3
100213	13:27	1	f.prool	14	7382	4
100213	13:27	1	f.ploof	15	3814	7
100213	13:27	1	f.sleege	16	2772	3
100213	13:27	1	f.yafe	17	1915	4
100213	13:27	1	f.yoze	18	2004	3
100213	13:27	1	f.smoze	19	1658	6
100213	13:27	1	f.klade	20	2477	8
100213	13:27	1	f.grague	21	1608	6
100213	13:27	1	f.vood	22	1526	7
100213	13:27	1	f.theef	23	2502	2
100213	13:27	1	f.stase	24	3648	3
100213	13:27	1	f.woche	25	1844	6
100213	13:27	1	f.gleesh	26	4480	6
100213	13:27	1	f.twase	27	5363	7
100213	13:27	1	f.thoge	28	2323	7
100213	13:27	1	f.krothe	29	2836	7
100213	13:27	1	f.preeth	30	1857	3
100213	13:27	1	f.thook	31	3277	2
100213	13:27	1	f.frofe	32	2687	6
100213	13:27	1	f.zabe	33	1986	5
100213	13:27	1	f.twabe	34	2720	4
100213	13:27	1	f.twale	35	4338	6
100213	13:27	1	f.trabe	36	3059	3
100213	13:27	1	f.gwape	37	3215	8
100213	13:27	1	f.yame	38	1940	7
100213	13:27	1	f.foop	39	5109	6
100213	13:27	1	f.sneesh	40	4031	1
100213	13:27	1	f.jeet	41	2300	6
100213	13:27	1	f.shoche	42	4149	9
100213	13:27	1	f.smole	43	1606	9
100213	13:27	1	f.kleech	44	2012	8
100213	13:27	1	f.thrade	45	3529	2
100213	13:27	1	f.bleesh	46	2626	3
100213	13:27	1	f.swogue	47	1318	4
100213	13:27	1	f.smoge	48	2391	9
100213	13:27	1	f.gweed	49	2958	2
100213	13:27	1	f.dwote	50	2630	8
100213	13:27	1	f.blooth	51	4122	6
100213	13:27	1	f.zeed	52	1420	7
100213	13:27	1	f.snothe	53	3049	3
100213	13:27	1	f.droob	54	3861	6
100213	13:27	1	f.tweesh	55	3057	8
100213	13:27	1	f.thothe	56	4493	5
100213	13:27	1	f.spague	57	1648	6
100213	13:27	1	f.sneem	58	2483	3
100213	13:27	1	f.groog	59	3213	2
100213	13:27	1	f.dween	60	1883	4
100213	13:27	1	r.bathtub	1	4334	6
100213	13:27	1	r.trust	2	1311	7
100213	13:27	1	r.building	3	1520	7
100213	13:27	1	r.bride	4	1937	8
100213	13:27	1	r.wink	5	1705	7
100213	13:27	1	r.disappoint	6	1555	1
100213	13:27	1	r.kitten	7	1418	9
100213	13:27	1	r.rock	8	2935	8
100213	13:27	1	r.swamp	9	2176	3
100213	13:27	1	r.inspired	10	1366	9
100213	13:27	1	r.champion	11	1029	9
100213	13:27	1	r.spouse	12	817	9
100213	13:27	1	r.bullet	13	1526	1
100213	13:27	1	r.subdued	14	3726	2
100213	13:27	1	r.father	15	1695	7
100213	13:27	1	r.spray	16	2137	3
100213	13:27	1	r.fungus	17	1585	4
100213	13:27	1	r.friendly	18	1496	8
100213	13:27	1	r.kids	19	1113	8
100213	13:27	1	r.chance	20	1618	7
100213	13:27	1	r.surgery	21	1695	4
100213	13:27	1	r.daylight	22	3440	8
100213	13:27	1	r.bird	23	1949	7
100213	13:27	1	r.rusty	24	2277	4
100213	13:27	1	r.perfume	25	1704	8
100213	13:27	1	r.spider	26	1625	1
100213	13:27	1	r.scorn	27	1918	2
100213	13:27	1	r.pollute	28	1679	2
100213	13:27	1	r.offend	29	1930	2
100213	13:27	1	r.garden	30	4354	7
100213	13:27	1	r.cheer	31	930	8
100213	13:27	1	r.vomit	32	2138	1
100213	13:27	1	r.riches	33	3491	7
100213	13:27	1	r.discouraged	34	1598	4
100213	13:27	1	r.couple	35	1867	6
100213	13:27	1	r.naked	36	2542	4
100213	13:27	1	r.humor	37	1974	7
100213	13:27	1	r.rollercoaster	38	1718	9
100213	13:27	1	r.bench	39	2558	5
100213	13:27	1	r.lightning	40	1702	4
100213	13:27	1	r.writer	41	2456	5
100213	13:27	1	r.profit	42	1756	7
100213	13:27	1	r.serious	43	1899	5
100213	13:27	1	r.wine	44	5021	3
100213	13:27	1	r.gold	45	2099	8
100213	13:27	1	r.bathroom	46	1453	5
100213	13:27	1	r.phase	47	2657	3
100213	13:27	1	r.sugar	48	1357	9
100213	13:27	1	r.nuisance	49	1892	2
100213	13:27	1	r.sunrise	50	3702	1
100213	13:27	1	r.flag	51	6553	5
100213	13:27	1	r.odd	52	1898	4
100213	13:27	1	r.greet	53	1276	6
100213	13:27	1	r.spring	54	1166	7
100213	13:27	1	r.arrogant	55	1517	2
100213	13:27	1	r.yellow	56	2158	6
100213	13:27	1	r.medicine	57	1781	4
100213	13:27	1	r.loneliness	58	1292	3
100213	13:27	1	r.limber	59	1838	5
100213	13:27	1	r.immature	60	2026	3
100213	13:27	1	howtype	1	25365	5
100213	13:59	1	speed	1	3411	42
100213	13:59	1	error	2	2853	97
100213	13:59	1	whichhand	3	9065	right
100213	13:59	1	r.useless	1	5580	2
100213	13:59	1	r.achievement	2	3276	9
100213	13:59	1	r.cellar	3	2951	5
100213	13:59	1	r.bus	4	2343	3
100213	13:59	1	r.corner	5	2463	5
100213	13:59	1	r.save	6	2610	6
100213	13:59	1	r.mother	7	1623	7
100213	13:59	1	r.dark	8	2588	2
100213	13:59	1	r.quarrel	9	2059	5
100213	13:59	1	r.assault	10	3463	1
100213	13:59	1	r.event	11	4138	6
100213	13:59	1	r.rifle	12	1587	6
100213	13:59	1	r.charm	13	1369	6
100213	13:59	1	r.unfaithful	14	2200	1
100213	13:59	1	r.engaged	15	2118	7
100213	13:59	1	r.weary	16	1831	3
100213	13:59	1	r.beauty	17	1595	7
100213	13:59	1	r.embattled	18	1753	2
100213	13:59	1	r.evil	19	1745	1
100213	13:59	1	r.lie	20	1232	1
100213	13:59	1	r.bath	21	1732	7
100213	13:59	1	r.dawn	22	2997	8
100213	13:59	1	r.sugar	23	1195	8
100213	13:59	1	r.nourish	24	1624	8
100213	13:59	1	r.drown	25	3285	1
100213	13:59	1	r.frustrated	26	1848	1
100213	13:59	1	r.angry	27	1036	1
100213	13:59	1	r.habit	28	1560	6
100213	13:59	1	r.millionaire	29	1439	9
100213	13:59	1	r.ankle	30	1579	5
100213	13:59	1	r.humble	31	1793	7
100213	13:59	1	r.war	32	1359	1
100213	13:59	1	r.ambulance	33	2063	5
100213	13:59	1	r.anxious	34	2457	6
100213	13:59	1	r.vanity	35	2597	5
100213	13:59	1	r.slave	36	1588	1
100213	13:59	1	r.bottle	37	1186	5
100213	13:59	1	r.alimony	38	1272	5
100213	13:59	1	r.clumsy	39	2715	4
100213	13:59	1	r.improve	40	5060	6
100213	13:59	1	r.autumn	41	1368	6
100213	13:59	1	r.distressed	42	2007	3
100213	13:59	1	r.gossip	43	1148	5
100213	13:59	1	r.clock	44	1076	5
100213	13:59	1	r.column	45	1094	5
100213	13:59	1	r.free	46	2679	9
100213	13:59	1	r.hydrant	47	1986	8
100213	13:59	1	r.gangrene	48	1825	5
100213	13:59	1	r.merry	49	1454	7
100213	13:59	1	r.pillow	50	1825	6
100213	13:59	1	r.favor	51	1702	6
100213	13:59	1	r.traitor	52	2232	3
100213	13:59	1	r.win	53	2412	9
100213	13:59	1	r.immoral	54	2138	5
100213	13:59	1	r.idea	55	2362	6
100213	13:59	1	r.education	56	1689	5
100213	13:59	1	r.yacht	57	2611	9
100213	13:59	1	r.excitement	58	1241	9
100213	13:59	1	r.toy	59	1301	5
100213	13:59	1	r.utensil	60	2110	5
100213	13:59	1	f.gwote	1	3062	4
100213	13:59	1	f.twooge	2	2521	7
100213	13:59	1	f.krafe	3	2219	5
100213	13:59	1	f.freech	4	4696	5
100213	13:59	1	f.stache	5	1179	5
100213	13:59	1	f.lache	6	2193	5
100213	13:59	1	f.veek	7	1047	5
100213	13:59	1	f.tweege	8	1450	5
100213	13:59	1	f.jame	9	1742	6
100213	13:59	1	f.jote	10	2702	5
100213	13:59	1	f.threel	11	5472	5
100213	13:59	1	f.sogue	12	1340	5
100213	13:59	1	f.dache	13	1868	4
100213	13:59	1	f.thwool	14	4303	5
100213	13:59	1	f.thabe	15	1090	5
100213	13:59	1	f.fague	16	1884	4
100213	13:59	1	f.poom	17	3342	5
100213	13:59	1	f.slase	18	1399	4
100213	13:59	1	f.gleech	19	3708	5
100213	13:59	1	f.speesh	20	2262	4
100213	13:59	1	f.shreese	21	1066	4
100213	13:59	1	f.thweed	22	1356	4
100213	13:59	1	f.shroosh	23	908	4
100213	13:59	1	f.gloog	24	1989	5
100213	13:59	1	f.theeb	25	1020	5
100213	13:59	1	f.vame	26	568	5
100213	13:59	1	f.gwove	27	767	5
100213	13:59	1	f.gwoom	28	1925	4
100213	13:59	1	f.thween	29	2750	4
100213	13:59	1	f.shrome	30	3118	5
100213	13:59	1	f.grooch	31	1464	5
100213	13:59	1	f.gwobe	32	2371	6
100213	13:59	1	f.snoove	33	1114	6
100213	13:59	1	f.krobe	34	1531	5
100213	13:59	1	f.gweech	35	1979	3
100213	13:59	1	f.foof	36	1481	5
100213	13:59	1	f.kleef	37	772	5
100213	13:59	1	f.kwage	38	914	5
100213	13:59	1	f.shrooze	39	739	5
100213	13:59	1	f.gloof	40	1827	6
100213	13:59	1	f.shrove	41	1527	5
100213	13:59	1	f.frobe	42	647	5
100213	13:59	1	f.snome	43	971	5
100213	13:59	1	f.thothe	44	1938	5
100213	13:59	1	f.sloom	45	1642	4
100213	13:59	1	f.plove	46	1430	5
100213	13:59	1	f.gleeg	47	722	5
100213	13:59	1	f.shoog	48	755	5
100213	13:59	1	f.smode	49	690	5
100213	13:59	1	f.gleege	50	404	5
100213	13:59	1	f.tofe	51	433	5
100213	13:59	1	f.shache	52	1724	4
100213	13:59	1	f.kwoog	53	934	5
100213	13:59	1	f.kweeg	54	454	5
100213	13:59	1	f.broge	55	1130	5
100213	13:59	1	f.gweege	56	1169	4
100213	13:59	1	f.shreeth	57	848	5
100213	13:59	1	f.yame	58	580	5
100213	13:59	1	f.twole	59	594	5
100213	13:59	1	f.yome	60	599	5
100213	13:59	1	howtype	1	10107	6
100213	14:27	4	speed	1	4458	53
100213	14:27	4	error	2	1795	98
100213	14:27	4	whichhand	3	8280	left
100213	14:27	4	r.deformed	1	4775	3
100213	14:27	4	r.garment	2	1943	7
100213	14:27	4	r.spanking	3	1735	2
100213	14:27	4	r.tomb	4	3439	4
100213	14:27	4	r.penalty	5	2012	5
100213	14:27	4	r.rifle	6	2193	8
100213	14:27	4	r.slum	7	2534	3
100213	14:27	4	r.wonder	8	2463	7
100213	14:27	4	r.slow	9	4114	3
100213	14:27	4	r.greet	10	4540	8
100213	14:27	4	r.destruction	11	1541	1
100213	14:27	4	r.hat	12	1718	5
100213	14:27	4	r.razor	13	2359	4
100213	14:27	4	r.reptile	14	2447	5
100213	14:27	4	r.pride	15	1722	8
100213	14:27	4	r.relaxed	16	1331	9
100213	14:27	4	r.honest	17	1387	9
100213	14:27	4	r.obesity	18	1450	2
100213	14:27	4	r.vision	19	1997	5
100213	14:27	4	r.bowl	20	1683	5
100213	14:27	4	r.execution	21	1429	1
100213	14:27	4	r.quarrel	22	1378	3
100213	14:27	4	r.obsession	23	1560	4
100213	14:27	4	r.lake	24	1582	8
100213	14:27	4	r.street	25	2997	6
100213	14:27	4	r.present	26	2467	8
100213	14:27	4	r.gun	27	1798	3
100213	14:27	4	r.erotic	28	2948	5
100213	14:27	4	r.star	29	1860	7
100213	14:27	4	r.skull	30	2447	3
100213	14:27	4	r.agility	31	2211	6
100213	14:27	4	r.garter	32	1768	6
100213	14:27	4	r.peace	33	1367	9
100213	14:27	4	r.stupid	34	1502	3
100213	14:27	4	r.white	35	1711	5
100213	14:27	4	r.bathtub	36	1448	7
100213	14:27	4	r.breeze	37	1836	9
100213	14:27	4	r.rage	38	4184	3
100213	14:27	4	r.jail	39	1304	2
100213	14:27	4	r.listless	40	1849	5
100213	14:27	4	r.diploma	41	1733	8
100213	14:27	4	r.alive	42	1325	9
100213	14:27	4	r.devil	43	1238	1
100213	14:27	4	r.hotel	44	2538	4
100213	14:27	4	r.enjoyment	45	1546	7
100213	14:27	4	r.slave	46	2250	1
100213	14:27	4	r.pie	47	1710	7
100213	14:27	4	r.joy	48	1359	9
100213	14:27	4	r.luxury	49	1526	7
100213	14:27	4	r.brother	50	1879	5
100213	14:27	4	r.elevator	51	1745	3
100213	14:27	4	r.violent	52	1321	2
100213	14:27	4	r.dirt	53	1530	4
100213	14:27	4	r.measles	54	1338	1
100213	14:27	4	r.skijump	55	1842	1
100213	14:27	4	r.cabinet	56	1614	5
100213	14:27	4	r.wedding	57	4259	8
100213	14:27	4	r.seat	58	2695	6
100213	14:27	4	r.fireworks	59	2017	5
100213	14:27	4	r.blossom	60	2014	8
100213	14:27	4	f.smoop	1	3006	5
100213	14:27	4	f.prole	2	1060	5
100213	14:27	4	f.gooch	3	2879	7
100213	14:27	4	f.deef	4	3450	5
100213	14:27	4	f.thweet	5	982	5
100213	14:27	4	f.floosh	6	4092	4
100213	14:27	4	f.twothe	7	1998	5
100213	14:27	4	f.dwool	8	1012	5
100213	14:27	4	f.brore	9	2153	5
100213	14:27	4	f.dwoot	10	993	5
100213	14:27	4	f.skeeb	11	2486	4
100213	14:27	4	f.dwoor	12	1337	5
100213	14:27	4	f.shrape	13	2177	3
100213	14:27	4	f.voshe	14	1896	5
100213	14:27	4	f.preech	15	2121	4
100213	14:27	4	f.skake	16	1826	7
100213	14:27	4	f.plache	17	1198	5
100213	14:27	4	f.leesh	18	2788	3
100213	14:27	4	f.thwook	19	1931	4
100213	14:27	4	f.gwoor	20	1811	4
100213	14:27	4	f.swothe	21	1856	6
100213	14:27	4	f.droze	22	1875	5
100213	14:27	4	f.shrogue	23	1574	5
100213	14:27	4	f.peeg	24	2197	4
100213	14:27	4	f.woche	25	1459	4
100213	14:27	4	f.yafe	26	1310	5
100213	14:27	4	f.kloof	27	1247	5
100213	14:27	4	f.shoob	28	955	5
100213	14:27	4	f.shreese	29	1378	6
100213	14:27	4	f.gwogue	30	2016	4
100213	14:27	4	f.dwote	31	909	5
100213	14:27	4	f.thode	32	1559	4
100213	14:27	4	f.snoof	33	934	3
100213	14:27	4	f.pame	34	1254	5
100213	14:27	4	f.yeese	35	978	6
100213	14:27	4	f.yogue	36	1216	5
100213	14:27	4	f.glooch	37	1028	5
100213	14:27	4	f.thrathe	38	1153	5
100213	14:27	4	f.doog	39	1680	5
100213	14:27	4	f.jeesh	40	1874	4
100213	14:27	4	f.thwoob	41	1429	4
100213	14:27	4	f.toosh	42	1786	3
100213	14:27	4	f.slore	43	1640	3
100213	14:27	4	f.snathe	44	1436	4
100213	14:27	4	f.sloog	45	1856	4
100213	14:27	4	f.frooth	46	2028	5
100213	14:27	4	f.jeech	47	2152	5
100213	14:27	4	f.snave	48	2008	5
100213	14:27	4	f.ploshe	49	2126	6
100213	14:27	4	f.thrade	50	1790	6
100213	14:27	4	f.grabe	51	1133	5
100213	14:27	4	f.shrafe	52	1485	4
100213	14:27	4	f.thwose	53	1047	4
100213	14:27	4	f.theeve	54	2218	3
100213	14:27	4	f.spove	55	2496	5
100213	14:27	4	f.joshe	56	1986	7
100213	14:27	4	f.skathe	57	1272	4
100213	14:27	4	f.yooze	58	1411	5
100213	14:27	4	f.shrobe	59	1168	5
100213	14:27	4	f.snoon	60	1270	4
100213	14:27	4	howtype	1	7888	4
100213	16:00	1	speed	1	3227	31
100213	16:00	1	error	2	4946	93
100213	16:00	1	whichhand	3	10484	right
100213	16:00	1	r.lamp	1	6705	3
100213	16:00	1	r.sailboat	2	4317	5
100213	16:00	1	r.outstanding	3	3607	7
100213	16:00	1	r.burdened	4	4805	4
100213	16:00	1	r.muddy	5	2340	2
100213	16:00	1	r.tobacco	6	2852	3
100213	16:00	1	r.trust	7	2320	5
100213	16:00	1	r.agility	8	3217	6
100213	16:00	1	r.reptile	9	2935	5
100213	16:00	1	r.sweetheart	10	2392	8
100213	16:00	1	r.social	11	3190	5
100213	16:00	1	r.masturbate	12	2549	4
100213	16:00	1	r.fear	13	3445	4
100213	16:00	1	r.song	14	3569	6
100213	16:00	1	r.detached	15	2769	6
100213	16:00	1	r.news	16	3472	5
100213	16:00	1	r.inhabitant	17	3292	3
100213	16:00	1	r.wise	18	4246	5
100213	16:00	1	r.hostile	19	2891	3
100213	16:00	1	r.sugar	20	1797	6
100213	16:00	1	r.pain	21	4323	3
100213	16:00	1	r.sour	22	3565	5
100213	16:00	1	r.pancakes	23	2260	7
100213	16:00	1	r.wine	24	2975	4
100213	16:00	1	r.sissy	25	2406	2
100213	16:00	1	r.bird	26	4372	5
100213	16:00	1	r.family	27	3636	6
100213	16:00	1	r.blister	28	1953	1
100213	16:00	1	r.fish	29	3497	2
100213	16:00	1	r.sentiment	30	3571	6
100213	16:00	1	r.world	31	3634	5
100213	16:00	1	r.beverage	32	3520	3
100213	16:00	1	r.mosquito	33	2849	4
100213	16:00	1	r.hungry	34	2949	4
100213	16:00	1	r.fever	35	4549	3
100213	16:00	1	r.spanking	36	2374	3
100213	16:00	1	r.farm	37	3141	5
100213	16:00	1	r.scared	38	3510	2
100213	16:00	1	r.dummy	39	2016	3
100213	16:00	1	r.car	40	2173	6
100213	16:00	1	r.plane	41	2636	5
100213	16:00	1	r.wish	42	2888	7
100213	16:00	1	r.profit	43	3219	7
100213	16:00	1	r.listless	44	4041	4
100213	16:00	1	r.mushroom	45	3238	2
100213	16:00	1	r.bored	46	2483	3
100213	16:00	1	r.hawk	47	2045	6
100213	16:00	1	r.safe	48	2433	8
100213	16:00	1	r.scissors	49	6469	6
100213	16:00	1	r.crash	50	2314	4
100213	16:00	1	r.mildew	51	3835	2
100213	16:00	1	r.carcass	52	1616	1
100213	16:00	1	r.game	53	3685	6
100213	16:00	1	r.ambition	54	2688	7
100213	16:00	1	r.elegant	55	2227	6
100213	16:00	1	r.headlight	56	3415	5
100213	16:00	1	r.journal	57	3485	3
100213	16:00	1	r.pretty	58	2608	7
100213	16:00	1	r.cottage	59	4742	5
100213	16:00	1	r.gender	60	2030	5
100213	16:00	1	f.gwoosh	1	3415	3
100213	16:00	1	f.stoog	2	3653	2
100213	16:00	1	f.peesh	3	2513	4
100213	16:00	1	f.twothe	4	3914	5
100213	16:00	1	f.froche	5	3084	6
100213	16:00	1	f.zode	6	3943	6
100213	16:00	1	f.gwooch	7	2335	2
100213	16:00	1	f.neeth	8	2920	5
100213	16:00	1	f.roosh	9	3113	6
100213	16:00	1	f.chale	10	2739	7
100213	16:00	1	f.mothe	11	3331	4
100213	16:00	1	f.zeeth	12	3492	6
100213	16:00	1	f.swoom	13	3862	5
100213	16:00	1	f.slore	14	2058	4
100213	16:00	1	f.thobe	15	3374	6
100213	16:00	1	f.smase	16	2653	8
100213	16:00	1	f.plare	17	3897	5
100213	16:00	1	f.prate	18	3308	6
100213	16:00	1	f.gwode	19	4974	3
100213	16:00	1	f.ploge	20	2134	4
100213	16:00	1	f.skoose	21	4295	7
100213	16:00	1	f.gwage	22	5825	4
100213	16:00	1	f.dwooze	23	3615	6
100213	16:00	1	f.sneesh	24	3508	5
100213	16:00	1	f.gwobe	25	2094	5
100213	16:00	1	f.shreep	26	2440	3
100213	16:00	1	f.snose	27	4588	6
100213	16:00	1	f.cheege	28	4236	6
100213	16:00	1	f.kwope	29	6664	4
100213	16:00	1	f.thague	30	2565	8
100213	16:00	1	f.thweech	31	4717	5
100213	16:00	1	f.spote	32	4399	6
100213	16:00	1	f.kwoshe	33	4829	7
100213	16:00	1	f.sweem	34	4267	6
100213	16:00	1	f.speep	35	2622	7
100213	16:00	1	f.sleesh	36	1684	4
100213	16:00	1	f.throoch	37	2566	3
100213	16:00	1	f.reesh	38	1629	5
100213	16:00	1	f.snane	39	2298	6
100213	16:00	1	f.pome	40	1323	5
100213	16:00	1	f.plofe	41	1596	3
100213	16:00	1	f.sloor	42	2010	6
100213	16:00	1	f.leesh	43	2895	6
100213	16:00	1	f.chabe	44	1961	7
100213	16:00	1	f.froosh	45	1608	6
100213	16:00	1	f.twame	46	2126	5
100213	16:00	1	f.thwoosh	47	1374	3
100213	16:00	1	f.yeeze	48	2301	4
100213	16:00	1	f.gwooze	49	3575	7
100213	16:00	1	f.fleesh	50	3063	6
100213	16:00	1	f.klood	51	2578	4
100213	16:00	1	f.swove	52	1608	5
100213	16:00	1	f.yoob	53	1982	3
100213	16:00	1	f.nashe	54	2100	6
100213	16:00	1	f.vade	55	1502	4
100213	16:00	1	f.droge	56	2592	6
100213	16:00	1	f.zooth	57	1678	6
100213	16:00	1	f.sname	58	2713	6
100213	16:00	1	f.tafe	59	2794	7
100213	16:00	1	f.neeg	60	2048	6
100213	16:00	1	howtype	1	8363	4
100213	16:30	1	speed	1	2854	44
100213	16:30	1	error	2	1844	95
100213	16:30	1	whichhand	3	7295	right
100213	16:30	1	r.loser	1	10539	1
100213	16:30	1	r.charm	2	2734	5
100213	16:30	1	r.golfer	3	2639	3
100213	16:30	1	r.pungent	4	2843	1
100213	16:30	1	r.fault	5	2133	1
100213	16:30	1	r.narcotic	6	2048	1
100213	16:30	1	r.enjoyment	7	2315	6
100213	16:30	1	r.smallpox	8	3661	2
100213	16:30	1	r.disloyal	9	1745	1
100213	16:30	1	r.snow	10	2096	5
100213	16:30	1	r.good	11	2178	4
100213	16:30	1	r.cannon	12	4360	3
100213	16:30	1	r.salute	13	2616	3
100213	16:30	1	r.pest	14	2213	1
100213	16:30	1	r.needle	15	2659	2
100213	16:30	1	r.politeness	16	2702	3
100213	16:30	1	r.champ	17	6024	4
100213	16:30	1	r.bird	18	2414	7
100213	16:30	1	r.green	19	1947	7
100213	16:30	1	r.errand	20	2915	3
100213	16:30	1	r.chance	21	2125	4
100213	16:30	1	r.square	22	2718	5
100213	16:30	1	r.suspicious	23	3135	4
100213	16:30	1	r.frog	24	2760	7
100213	16:30	1	r.abundance	25	2063	7
100213	16:30	1	r.vampire	26	2682	5
100213	16:30	1	r.unhappy	27	2421	2
100213	16:30	1	r.festive	28	2354	5
100213	16:30	1	r.aggressive	29	1834	1
100213	16:30	1	r.pressure	30	2542	1
100213	16:30	1	r.dustpan	31	4742	4
100213	16:30	1	r.concentrate	32	2159	6
100213	16:30	1	r.brave	33	4966	7
100213	16:30	1	r.enraged	34	7486	2
100213	16:30	1	r.utensil	35	2483	1
100213	16:30	1	r.neurotic	36	2157	3
100213	16:30	1	r.coin	37	1869	7
100213	16:30	1	r.sunrise	38	1888	8
100213	16:30	1	r.terrible	39	1802	1
100213	16:30	1	r.depressed	40	1440	1
100213	16:30	1	r.suicide	41	2204	1
100213	16:30	1	r.troubled	42	2122	2
100213	16:30	1	r.knowledge	43	6363	5
100213	16:30	1	r.girl	44	2292	8
100213	16:30	1	r.thorn	45	1878	1
100213	16:30	1	r.violent	46	1441	1
100213	16:30	1	r.pillow	47	2061	6
100213	16:30	1	r.embattled	48	2464	2
100213	16:30	1	r.salad	49	9931	5
100213	16:30	1	r.wife	50	2606	6
100213	16:30	1	r.industry	51	1972	3
100213	16:30	1	r.breast	52	4131	2
100213	16:30	1	r.deformed	53	1805	1
100213	16:30	1	r.river	54	5394	5
100213	16:30	1	r.family	55	1737	5
100213	16:30	1	r.easygoing	56	4377	6
100213	16:30	1	r.dreadful	57	4088	1
100213	16:30	1	r.manure	58	2628	1
100213	16:30	1	r.menace	59	1776	1
100213	16:30	1	r.gloom	60	3486	2
100213	16:30	1	f.thake	1	2656	2
100213	16:30	1	f.veege	2	2676	3
100213	16:30	1	f.droze	3	5383	3
100213	16:30	1	f.dwoche	4	5710	1
100213	16:30	1	f.proom	5	3201	2
100213	16:30	1	f.flage	6	7583	3
100213	16:30	1	f.gwore	7	2199	3
100213	16:30	1	f.poshe	8	6285	5
100213	16:30	1	f.kwoog	9	6033	3
100213	16:30	1	f.flague	10	4391	2
100213	16:30	1	f.smode	11	3661	3
100213	16:30	1	f.shrame	12	5426	4
100213	16:30	1	f.zate	13	3583	3
100213	16:30	1	f.thwothe	14	6158	3
100213	16:30	1	f.snoom	15	2167	2
100213	16:30	1	f.bleef	16	5302	1
100213	16:30	1	f.smoose	17	5097	3
100213	16:30	1	f.joshe	18	4867	2
100213	16:30	1	f.dwoze	19	1872	1
100213	16:30	1	f.swabe	20	5171	3
100213	16:30	1	f.choom	21	2075	3
100213	16:30	1	f.yone	22	2790	3
100213	16:30	1	f.skoob	23	2117	5
100213	16:30	1	f.toosh	24	1710	5
100213	16:30	1	f.kweech	25	3622	3
100213	16:30	1	f.stose	26	5724	3
100213	16:30	1	f.goche	27	2398	2
100213	16:30	1	f.skeek	28	1564	1
100213	16:30	1	f.noge	29	2402	2
100213	16:30	1	f.grague	30	2761	3
100213	16:30	1	f.veeve	31	3016	3
100213	16:30	1	f.neesh	32	3085	2
100213	16:30	1	f.dwoshe	33	2528	3
100213	16:30	1	f.shrague	34	4369	3
100213	16:30	1	f.kague	35	5217	2
100213	16:30	1	f.vobe	36	2623	3
100213	16:30	1	f.snage	37	3004	2
100213	16:30	1	f.froge	38	2570	4
100213	16:30	1	f.yope	39	1649	5
100213	16:30	1	f.thate	40	1589	5
100213	16:30	1	f.throde	41	1363	5
100213	16:30	1	f.poog	42	2130	4
100213	16:30	1	f.smeeg	43	2339	3
100213	16:30	1	f.loche	44	2307	4
100213	16:30	1	f.thwore	45	2804	3
100213	16:30	1	f.smothe	46	2755	4
100213	16:30	1	f.shrabe	47	2171	2
100213	16:30	1	f.thwogue	48	3153	2
100213	16:30	1	f.seesh	49	2482	4
100213	16:30	1	f.swoove	50	1933	4
100213	16:30	1	f.joosh	51	1837	4
100213	16:30	1	f.ploosh	52	1497	5
100213	16:30	1	f.shrothe	53	1859	2
100213	16:30	1	f.bleege	54	2062	3
100213	16:30	1	f.kloshe	55	1809	4
100213	16:30	1	f.vashe	56	1630	5
100213	16:30	1	f.skooge	57	1315	4
100213	16:30	1	f.pothe	58	1227	5
100213	16:30	1	f.dreef	59	1328	2
100213	16:30	1	f.freesh	60	1760	3
100213	16:30	1	howtype	1	4925	3
100313	10:59	1	speed	1	3026	44
100313	10:59	1	error	2	1577	95
100313	10:59	1	whichhand	3	6528	Left
100313	10:59	1	f.jate	1	7414	2
100313	10:59	1	f.cheeth	2	4069	3
100313	10:59	1	f.throof	3	2649	2
100313	10:59	1	f.gweeth	4	2837	1
100313	10:59	1	f.meeth	5	2161	2
100313	10:59	1	f.theen	6	1433	2
100313	10:59	1	f.dweeve	7	1013	2
100313	10:59	1	f.tashe	8	978	2
100313	10:59	1	f.dweed	9	3711	1
100313	10:59	1	f.sneem	10	1889	1
100313	10:59	1	f.yobe	11	2284	4
100313	10:59	1	f.shase	12	4973	5
100313	10:59	1	f.thone	13	1630	4
100313	10:59	1	f.joog	14	1058	4
100313	10:59	1	f.gwole	15	2694	5
100313	10:59	1	f.sache	16	2976	6
100313	10:59	1	f.thole	17	2159	7
100313	10:59	1	f.kwase	18	4238	6
100313	10:59	1	f.gweer	19	1875	3
100313	10:59	1	f.spabe	20	1102	3
100313	10:59	1	f.vake	21	2199	8
100313	10:59	1	f.troob	22	2229	2
100313	10:59	1	f.shreech	23	922	2
100313	10:59	1	f.steef	24	1402	3
100313	10:59	1	f.twale	25	2504	3
100313	10:59	1	f.dwoove	26	2698	4
100313	10:59	1	f.smope	27	892	4
100313	10:59	1	f.bloog	28	1206	3
100313	10:59	1	f.stooth	29	1491	6
100313	10:59	1	f.nathe	30	894	7
100313	10:59	1	f.snooch	31	383	7
100313	10:59	1	f.poshe	32	925	1
100313	10:59	1	f.yote	33	3109	8
100313	10:59	1	f.zove	34	951	4
100313	10:59	1	f.fogue	35	1853	5
100313	10:59	1	f.dwoon	36	2201	2
100313	10:59	1	f.vade	37	1847	3
100313	10:59	1	f.shreer	38	5699	5
100313	10:59	1	f.speem	39	2014	4
100313	10:59	1	f.teesh	40	1227	4
100313	10:59	1	f.thwofe	41	2383	3
100313	10:59	1	f.vope	42	2206	8
100313	10:59	1	f.throod	43	1563	4
100313	10:59	1	f.trook	44	2586	7
100313	10:59	1	f.prame	45	3593	2
100313	10:59	1	f.smose	46	1687	3
100313	10:59	1	f.trake	47	3721	4
100313	10:59	1	f.snane	48	4059	5
100313	10:59	1	f.shroor	49	943	7
100313	10:59	1	f.yofe	50	1790	3
100313	10:59	1	f.sloosh	51	844	3
100313	10:59	1	f.spashe	52	2144	9
100313	10:59	1	f.plole	53	3087	1
100313	10:59	1	f.stabe	54	2082	7
100313	10:59	1	f.dweeth	55	5189	2
100313	10:59	1	f.smobe	56	2676	2
100313	10:59	1	f.glooge	57	3431	4
100313	10:59	1	f.noshe	58	1316	4
100313	10:59	1	f.blooge	59	1909	3
100313	10:59	1	f.dwoshe	60	4974	3
100313	10:59	1	r.wine	1	2661	8
100313	10:59	1	r.poison	2	2216	1
100313	10:59	1	r.city	3	1165	5
100313	10:59	1	r.mobility	4	2020	7
100313	10:59	1	r.mistake	5	1577	3
100313	10:59	1	r.basket	6	7991	8
100313	10:59	1	r.dreary	7	1935	1
100313	10:59	1	r.shadow	8	2919	4
100313	10:59	1	r.infatuation	9	1649	6
100313	10:59	1	r.regretful	10	1820	2
100313	10:59	1	r.lantern	11	1785	5
100313	10:59	1	r.frigid	12	12183	4
100313	10:59	1	r.python	13	9601	2
100313	10:59	1	r.sin	14	3178	1
100313	10:59	1	r.lightning	15	2329	2
100313	10:59	1	r.item	16	1826	5
100313	10:59	1	r.nurse	17	1559	6
100313	10:59	1	r.memory	18	2750	8
100313	10:59	1	r.vehicle	19	2022	6
100313	10:59	1	r.rage	20	3059	3
100313	10:59	1	r.bench	21	3358	7
100313	10:59	1	r.home	22	1846	9
100313	10:59	1	r.plane	23	3346	6
100313	10:59	1	r.paralysis	24	3601	4
100313	10:59	1	r.toothache	25	1697	2
100313	10:59	1	r.vomit	26	1275	1
100313	10:59	1	r.injury	27	1166	1
100313	10:59	1	r.egg	28	3548	5
100313	10:59	1	r.fork	29	1100	5
100313	10:59	1	r.truth	30	1798	9
100313	10:59	1	r.riches	31	2923	7
100313	10:59	1	r.disaster	32	1868	1
100313	10:59	1	r.barrel	33	3150	6
100313	10:59	1	r.disturb	34	1655	2
100313	10:59	1	r.confused	35	2267	3
100313	10:59	1	r.skull	36	3551	4
100313	10:59	1	r.sunlight	37	6111	9
100313	10:59	1	r.rusty	38	1801	4
100313	10:59	1	r.trunk	39	2655	4
100313	10:59	1	r.lie	40	2971	1
100313	10:59	1	r.dustpan	41	1610	3
100313	10:59	1	r.suicide	42	1559	1
100313	10:59	1	r.bandage	43	2070	3
100313	10:59	1	r.desire	44	2129	7
100313	10:59	1	r.madman	45	1882	1
100313	10:59	1	r.kiss	46	2723	9
100313	10:59	1	r.astonished	47	3357	4
100313	10:59	1	r.christmas	48	1558	9
100313	10:59	1	r.surgery	49	1254	4
100313	10:59	1	r.invader	50	6161	2
100313	10:59	1	r.lighthouse	51	2193	7
100313	10:59	1	r.utensil	52	4119	5
100313	10:59	1	r.puppy	53	1753	7
100313	10:59	1	r.modest	54	2361	8
100313	10:59	1	r.umbrella	55	1752	7
100313	10:59	1	r.rescue	56	1943	7
100313	10:59	1	r.wise	57	1551	7
100313	10:59	1	r.fabric	58	2375	5
100313	10:59	1	r.luscious	59	2622	7
100313	10:59	1	r.activate	60	5483	6
100313	10:59	1	howtype	1	7781	3
100313	11:31	1	speed	1	2811	83
100313	11:31	1	error	2	2244	100
100313	11:31	1	whichhand	3	4984	Right
100313	11:31	1	f.stoof	1	9443	5
100313	11:31	1	f.yeet	2	4938	2
100313	11:31	1	f.pleef	3	3371	4
100313	11:31	1	f.frooth	4	2779	5
100313	11:31	1	f.yoze	5	5113	6
100313	11:31	1	f.prope	6	2667	6
100313	11:31	1	f.smooge	7	3055	7
100313	11:31	1	f.toshe	8	3427	7
100313	11:31	1	f.blove	9	2328	6
100313	11:31	1	f.thwood	10	4848	5
100313	11:31	1	f.gloosh	11	2397	8
100313	11:31	1	f.skoose	12	2091	8
100313	11:31	1	f.proche	13	2301	6
100313	11:31	1	f.brage	14	2735	7
100313	11:31	1	f.speeb	15	3224	8
100313	11:31	1	f.snothe	16	4973	3
100313	11:31	1	f.gweege	17	3109	3
100313	11:31	1	f.preek	18	3743	2
100313	11:31	1	f.twave	19	2599	5
100313	11:31	1	f.zeep	20	1541	7
100313	11:31	1	f.gwoog	21	2765	4
100313	11:31	1	f.dothe	22	1788	4
100313	11:31	1	f.steeb	23	8531	2
100313	11:31	1	f.frope	24	5597	4
100313	11:31	1	f.troom	25	1685	4
100313	11:31	1	f.kweeg	26	3439	6
100313	11:31	1	f.joob	27	2620	7
100313	11:31	1	f.droche	28	3025	5
100313	11:31	1	f.smoob	29	2335	7
100313	11:31	1	f.tweeb	30	3175	7
100313	11:31	1	f.broob	31	1998	8
100313	11:31	1	f.klale	32	3908	4
100313	11:31	1	f.peeth	33	1583	5
100313	11:31	1	f.groosh	34	2509	6
100313	11:31	1	f.breeb	35	2702	6
100313	11:31	1	f.treef	36	2544	6
100313	11:31	1	f.yeech	37	3800	3
100313	11:31	1	f.stose	38	4334	3
100313	11:31	1	f.skooth	39	3527	5
100313	11:31	1	f.lale	40	1528	5
100313	11:31	1	f.gwoke	41	1385	5
100313	11:31	1	f.plooge	42	1775	7
100313	11:31	1	f.shroor	43	5422	4
100313	11:31	1	f.gweeg	44	2212	4
100313	11:31	1	f.kwave	45	2489	5
100313	11:31	1	f.kweed	46	3316	6
100313	11:31	1	f.skeeb	47	6733	5
100313	11:31	1	f.breeth	48	2767	3
100313	11:31	1	f.thwoon	49	3007	5
100313	11:31	1	f.proosh	50	3237	5
100313	11:31	1	f.droose	51	3130	4
100313	11:31	1	f.smeem	52	2682	6
100313	11:31	1	f.thague	53	2781	5
100313	11:31	1	f.spoge	54	3580	4
100313	11:31	1	f.shrofe	55	5314	4
100313	11:31	1	f.froob	56	3501	7
100313	11:31	1	f.smane	57	1455	5
100313	11:31	1	f.ploop	58	2419	9
100313	11:31	1	f.yeege	59	3000	5
100313	11:31	1	f.shreeb	60	3742	6
100313	11:31	1	r.obesity	1	3336	1
100313	11:31	1	r.measles	2	1721	1
100313	11:31	1	r.offend	3	1546	2
100313	11:31	1	r.optimism	4	2993	6
100313	11:31	1	r.detail	5	3103	5
100313	11:31	1	r.fraud	6	2146	1
100313	11:31	1	r.devoted	7	1737	7
100313	11:31	1	r.radio	8	2898	8
100313	11:31	1	r.luxury	9	1244	9
100313	11:31	1	r.agreement	10	1183	9
100313	11:31	1	r.glory	11	1061	9
100313	11:31	1	r.consoled	12	1600	8
100313	11:31	1	r.suffocate	13	1566	1
100313	11:31	1	r.freedom	14	1637	9
100313	11:31	1	r.roach	15	1497	1
100313	11:31	1	r.jealousy	16	1435	2
100313	11:31	1	r.option	17	2038	5
100313	11:31	1	r.quart	18	1347	5
100313	11:31	1	r.elbow	19	1587	5
100313	11:31	1	r.destroy	20	3633	2
100313	11:31	1	r.assassin	21	2542	2
100313	11:31	1	r.windmill	22	2238	5
100313	11:31	1	r.custom	23	1499	4
100313	11:31	1	r.fire	24	1604	3
100313	11:31	1	r.misery	25	2842	1
100313	11:31	1	r.runner	26	2430	6
100313	11:31	1	r.pinch	27	2779	4
100313	11:31	1	r.jail	28	1777	2
100313	11:31	1	r.hand	29	2359	5
100313	11:31	1	r.trunk	30	1095	5
100313	11:31	1	r.rollercoaster	31	3672	4
100313	11:31	1	r.market	32	2252	5
100313	11:31	1	r.history	33	1808	3
100313	11:31	1	r.manner	34	2405	5
100313	11:31	1	r.wish	35	1595	7
100313	11:31	1	r.robber	36	1673	2
100313	11:31	1	r.penis	37	5283	4
100313	11:31	1	r.guillotine	38	3391	3
100313	11:31	1	r.secure	39	1926	6
100313	11:31	1	r.truth	40	2910	7
100313	11:31	1	r.pressure	41	2192	2
100313	11:31	1	r.ambulance	42	1326	3
100313	11:31	1	r.selfish	43	3086	1
100313	11:31	1	r.butter	44	2385	6
100313	11:31	1	r.despairing	45	1720	1
100313	11:31	1	r.glacier	46	5247	5
100313	11:31	1	r.frigid	47	1510	5
100313	11:31	1	r.allergy	48	1519	3
100313	11:31	1	r.decompose	49	3087	1
100313	11:31	1	r.errand	50	4274	4
100313	11:31	1	r.unit	51	1494	5
100313	11:31	1	r.dark	52	2040	3
100313	11:31	1	r.fame	53	1732	8
100313	11:31	1	r.humiliate	54	1412	1
100313	11:31	1	r.sunset	55	1345	9
100313	11:31	1	r.angel	56	1393	9
100313	11:31	1	r.city	57	1286	8
100313	11:31	1	r.depressed	58	2872	1
100313	11:31	1	r.aggressive	59	1804	1
100313	11:31	1	r.tumor	60	1137	1
100313	11:31	1	howtype	1	8440	7
100313	12:02	1	speed	1	3339	60
100313	12:02	1	error	2	1604	96
100313	12:02	1	whichhand	3	6819	right
100313	12:02	1	f.thweeve	1	10569	5
100313	12:02	1	f.yage	2	2979	7
100313	12:02	1	f.twase	3	3346	4
100313	12:02	1	f.snoose	4	4370	6
100313	12:02	1	f.trogue	5	4602	5
100313	12:02	1	f.jofe	6	7401	7
100313	12:02	1	f.frope	7	1928	5
100313	12:02	1	f.slood	8	2657	7
100313	12:02	1	f.grage	9	3085	4
100313	12:02	1	f.threesh	10	5184	6
100313	12:02	1	f.drobe	11	1279	6
100313	12:02	1	f.thwame	12	2033	5
100313	12:02	1	f.snothe	13	1414	5
100313	12:02	1	f.plook	14	1595	3
100313	12:02	1	f.slague	15	3736	8
100313	12:02	1	f.shroze	16	3017	9
100313	12:02	1	f.froof	17	1551	4
100313	12:02	1	f.gleef	18	2430	6
100313	12:02	1	f.twoog	19	1187	4
100313	12:02	1	f.frothe	20	1065	4
100313	12:02	1	f.groor	21	764	4
100313	12:02	1	f.kleech	22	1554	7
100313	12:02	1	f.flooth	23	1010	4
100313	12:02	1	f.theen	24	3350	6
100313	12:02	1	f.throob	25	2655	3
100313	12:02	1	f.thwooze	26	2971	4
100313	12:02	1	f.shoche	27	2530	4
100313	12:02	1	f.theed	28	3259	7
100313	12:02	1	f.stague	29	2150	7
100313	12:02	1	f.pleege	30	1461	3
100313	12:02	1	f.yave	31	1697	4
100313	12:02	1	f.kwoob	32	1171	3
100313	12:02	1	f.swafe	33	5193	5
100313	12:02	1	f.neeg	34	1952	5
100313	12:02	1	f.treek	35	2688	8
100313	12:02	1	f.twape	36	2107	5
100313	12:02	1	f.gwove	37	796	5
100313	12:02	1	f.vooge	38	1522	3
100313	12:02	1	f.snage	39	1779	8
100313	12:02	1	f.deeb	40	1345	3
100313	12:02	1	f.blofe	41	1192	3
100313	12:02	1	f.dwome	42	1638	3
100313	12:02	1	f.klobe	43	906	3
100313	12:02	1	f.prooch	44	707	3
100313	12:02	1	f.gleesh	45	973	3
100313	12:02	1	f.mooth	46	6051	4
100313	12:02	1	f.yeef	47	3352	4
100313	12:02	1	f.gleege	48	1281	4
100313	12:02	1	f.snoof	49	763	4
100313	12:02	1	f.snathe	50	3105	6
100313	12:02	1	f.twofe	51	1044	3
100313	12:02	1	f.chague	52	2791	6
100313	12:02	1	f.leel	53	1206	4
100313	12:02	1	f.shreesh	54	3075	6
100313	12:02	1	f.drote	55	1870	5
100313	12:02	1	f.throfe	56	961	3
100313	12:02	1	f.kweeg	57	2176	4
100313	12:02	1	f.threech	58	4054	6
100313	12:02	1	f.twooge	59	1907	4
100313	12:02	1	f.swoog	60	1276	3
100313	12:02	1	r.detail	1	4201	6
100313	12:02	1	r.maniac	2	3120	3
100313	12:02	1	r.invest	3	1754	6
100313	12:02	1	r.kids	4	1313	4
100313	12:02	1	r.wine	5	1402	8
100313	12:02	1	r.coin	6	1760	6
100313	12:02	1	r.manure	7	2151	3
100313	12:02	1	r.seasick	8	1734	2
100313	12:02	1	r.intercourse	9	1599	3
100313	12:02	1	r.history	10	2044	3
100313	12:02	1	r.ennui	11	1376	3
100313	12:02	1	r.hard	12	2366	3
100313	12:02	1	r.honest	13	1613	8
100313	12:02	1	r.horse	14	1490	8
100313	12:02	1	r.aloof	15	1261	4
100313	12:02	1	r.daylight	16	2111	5
100313	12:02	1	r.death	17	1944	3
100313	12:02	1	r.bar	18	2616	6
100313	12:02	1	r.whistle	19	1510	8
100313	12:02	1	r.contents	20	2191	5
100313	12:02	1	r.savior	21	1997	8
100313	12:02	1	r.virtue	22	1811	8
100313	12:02	1	r.eat	23	2952	6
100313	12:02	1	r.detest	24	1480	3
100313	12:02	1	r.kitten	25	1506	2
100313	12:02	1	r.optimism	26	2955	6
100313	12:02	1	r.applause	27	2387	5
100313	12:02	1	r.overcast	28	2522	6
100313	12:02	1	r.gender	29	1555	5
100313	12:02	1	r.board	30	1267	5
100313	12:02	1	r.fatigued	31	2158	3
100313	12:02	1	r.hurt	32	1677	2
100313	12:02	1	r.window	33	1928	5
100313	12:02	1	r.puppy	34	2096	8
100313	12:02	1	r.joyful	35	2626	6
100313	12:02	1	r.avenue	36	1975	7
100313	12:02	1	r.garter	37	6685	5
100313	12:02	1	r.vampire	38	1690	2
100313	12:02	1	r.lucky	39	1916	8
100313	12:02	1	r.runner	40	1725	9
100313	12:02	1	r.quick	41	3510	2
100313	12:02	1	r.jelly	42	2288	6
100313	12:02	1	r.clumsy	43	1162	3
100313	12:02	1	r.noisy	44	1185	2
100313	12:02	1	r.caress	45	3351	9
100313	12:02	1	r.surgery	46	1479	2
100313	12:02	1	r.blackmail	47	1417	4
100313	12:02	1	r.quarrel	48	2022	2
100313	12:02	1	r.ridicule	49	1259	2
100313	12:02	1	r.penalty	50	742	2
100313	12:02	1	r.syphilis	51	982	3
100313	12:02	1	r.tune	52	3516	5
100313	12:02	1	r.orgasm	53	3638	8
100313	12:02	1	r.ambition	54	1443	8
100313	12:02	1	r.capable	55	3814	7
100313	12:02	1	r.green	56	1980	3
100313	12:02	1	r.limber	57	2154	6
100313	12:02	1	r.cork	58	3170	7
100313	12:02	1	r.useful	59	1937	5
100313	12:02	1	r.art	60	1386	7
100313	12:02	1	howtype	1	7839	7
100313	12:28	1	speed	1	3105	35
100313	12:28	1	error	2	2151	100
100313	12:28	1	whichhand	3	7359	left
100313	12:28	1	r.cute	1	9266	7
100313	12:28	1	r.angry	2	2448	5
100313	12:28	1	r.ugly	3	3316	3
100313	12:28	1	r.beverage	4	9461	6
100313	12:28	1	r.idea	5	1995	7
100313	12:28	1	r.nourish	6	3000	6
100313	12:28	1	r.excuse	7	2567	4
100313	12:28	1	r.quick	8	2062	6
100313	12:28	1	r.suicide	9	2257	2
100313	12:28	1	r.brother	10	1765	7
100313	12:28	1	r.humor	11	2044	7
100313	12:28	1	r.free	12	1792	8
100313	12:28	1	r.despairing	13	2558	3
100313	12:28	1	r.pride	14	1950	6
100313	12:28	1	r.defeated	15	5445	4
100313	12:28	1	r.mobility	16	4362	5
100313	12:28	1	r.abundance	17	3834	7
100313	12:28	1	r.filth	18	2368	3
100313	12:28	1	r.dagger	19	2007	5
100313	12:28	1	r.lightning	20	3292	6
100313	12:28	1	r.sphere	21	3199	5
100313	12:28	1	r.finger	22	8820	5
100313	12:28	1	r.robber	23	7124	2
100313	12:28	1	r.car	24	3774	6
100313	12:28	1	r.trunk	25	5630	6
100313	12:28	1	r.germs	26	1996	4
100313	12:28	1	r.cannon	27	2105	6
100313	12:28	1	r.fabric	28	1667	5
100313	12:28	1	r.kitten	29	2582	6
100313	12:28	1	r.disturb	30	2796	3
100313	12:28	1	r.breeze	31	1755	7
100313	12:28	1	r.tense	32	3442	4
100313	12:28	1	r.reserved	33	4023	5
100313	12:28	1	r.contents	34	5924	6
100313	12:28	1	r.lottery	35	2214	6
100313	12:28	1	r.desire	36	1660	7
100313	12:28	1	r.thrill	37	2454	7
100313	12:28	1	r.key	38	4778	6
100313	12:28	1	r.clumsy	39	1874	5
100313	12:28	1	r.shark	40	4357	6
100313	12:28	1	r.wish	41	2853	7
100313	12:28	1	r.stove	42	2697	5
100313	12:28	1	r.mosquito	43	2987	3
100313	12:28	1	r.warmth	44	3290	6
100313	12:28	1	r.hell	45	2581	4
100313	12:28	1	r.enraged	46	2619	3
100313	12:28	1	r.pistol	47	1768	6
100313	12:28	1	r.fatigued	48	2048	4
100313	12:28	1	r.panic	49	4699	3
100313	12:28	1	r.inferior	50	1942	4
100313	12:28	1	r.beauty	51	3094	6
100313	12:28	1	r.yacht	52	2520	5
100313	12:28	1	r.cord	53	2066	5
100313	12:28	1	r.suspicious	54	2109	4
100313	12:28	1	r.music	55	1942	7
100313	12:28	1	r.plant	56	6118	6
100313	12:28	1	r.rage	57	1569	4
100313	12:28	1	r.menace	58	2080	4
100313	12:28	1	r.ambulance	59	10530	4
100313	12:28	1	r.eat	60	2478	6
100313	12:28	1	f.theet	1	5579	4
100313	12:28	1	f.zoge	2	2810	5
100313	12:28	1	f.stafe	3	3440	4
100313	12:28	1	f.twoche	4	2541	6
100313	12:28	1	f.zoog	5	3109	7
100313	12:28	1	f.thwogue	6	2791	5
100313	12:28	1	f.jofe	7	4517	3
100313	12:28	1	f.yeege	8	3623	6
100313	12:28	1	f.shrage	9	3109	4
100313	12:28	1	f.yabe	10	2511	5
100313	12:28	1	f.yoob	11	2728	7
100313	12:28	1	f.dwogue	12	5920	3
100313	12:28	1	f.veege	13	5634	6
100313	12:28	1	f.dreech	14	3192	6
100313	12:28	1	f.spape	15	3895	7
100313	12:28	1	f.smooze	16	3457	7
100313	12:28	1	f.bloob	17	3717	4
100313	12:28	1	f.woog	18	7143	6
100313	12:28	1	f.dwave	19	6440	6
100313	12:28	1	f.noog	20	1966	5
100313	12:28	1	f.veef	21	2021	3
100313	12:28	1	f.wothe	22	2787	4
100313	12:28	1	f.dweeg	23	1993	6
100313	12:28	1	f.sneef	24	1167	7
100313	12:28	1	f.chool	25	1390	5
100313	12:28	1	f.toove	26	3356	7
100313	12:28	1	f.jate	27	1364	6
100313	12:28	1	f.yeeg	28	4467	6
100313	12:28	1	f.twave	29	5871	6
100313	12:28	1	f.shroosh	30	1539	7
100313	12:28	1	f.gwafe	31	4603	7
100313	12:28	1	f.mabe	32	2290	6
100313	12:28	1	f.vooge	33	1517	4
100313	12:28	1	f.slache	34	1924	6
100313	12:28	1	f.glogue	35	3630	5
100313	12:28	1	f.blole	36	3467	6
100313	12:28	1	f.sleech	37	12046	4
100313	12:28	1	f.thwade	38	8293	6
100313	12:28	1	f.droob	39	4498	6
100313	12:28	1	f.spave	40	3420	7
100313	12:28	1	f.pleech	41	2490	6
100313	12:28	1	f.glathe	42	1547	7
100313	12:28	1	f.skoose	43	1316	6
100313	12:28	1	f.brathe	44	1733	6
100313	12:28	1	f.smabe	45	2109	5
100313	12:28	1	f.pashe	46	1262	6
100313	12:28	1	f.froove	47	2001	7
100313	12:28	1	f.sloose	48	2255	7
100313	12:28	1	f.sweech	49	1659	6
100313	12:28	1	f.throde	50	2334	5
100313	12:28	1	f.snood	51	2135	4
100313	12:28	1	f.meeth	52	2127	4
100313	12:28	1	f.voosh	53	1616	6
100313	12:28	1	f.grague	54	2012	7
100313	12:28	1	f.snoose	55	1794	7
100313	12:28	1	f.gleege	56	1319	7
100313	12:28	1	f.drooth	57	4864	6
100313	12:28	1	f.slade	58	3460	7
100313	12:28	1	f.shrame	59	2768	4
100313	12:28	1	f.thoog	60	2519	6
100313	12:28	1	howtype	1	9751	4
100313	13:01	1	speed	1	3351	74
100313	13:01	1	error	2	2011	97
100313	13:01	1	whichhand	3	6743	right
100313	13:01	1	f.kwade	1	10470	1
100313	13:01	1	f.spabe	2	2956	1
100313	13:01	1	f.drooze	3	5468	3
100313	13:01	1	f.gloshe	4	2368	2
100313	13:01	1	f.kloosh	5	5352	3
100313	13:01	1	f.smome	6	2664	1
100313	13:01	1	f.kloof	7	5243	6
100313	13:01	1	f.speeve	8	5832	7
100313	13:01	1	f.thwake	9	5462	3
100313	13:01	1	f.roosh	10	2603	5
100313	13:01	1	f.jeem	11	2105	5
100313	13:01	1	f.skeege	12	1971	4
100313	13:01	1	f.krogue	13	2041	2
100313	13:01	1	f.shreesh	14	2358	4
100313	13:01	1	f.chale	15	1918	1
100313	13:01	1	f.kreer	16	3199	3
100313	13:01	1	f.sleef	17	2565	4
100313	13:01	1	f.smoof	18	3828	6
100313	13:01	1	f.sleel	19	3041	4
100313	13:01	1	f.kloshe	20	2982	1
100313	13:01	1	f.slache	21	10404	2
100313	13:01	1	f.krashe	22	3013	4
100313	13:01	1	f.gwood	23	4907	5
100313	13:01	1	f.spope	24	2117	2
100313	13:01	1	f.gwoke	25	6879	4
100313	13:01	1	f.shrape	26	1851	5
100313	13:01	1	f.theeb	27	6566	7
100313	13:01	1	f.shrashe	28	1863	2
100313	13:01	1	f.dreet	29	5394	5
100313	13:01	1	f.gleege	30	3089	4
100313	13:01	1	f.swooze	31	1884	7
100313	13:01	1	f.dweech	32	2790	4
100313	13:01	1	f.skoke	33	1725	2
100313	13:01	1	f.stogue	34	1694	1
100313	13:01	1	f.dweeze	35	6799	3
100313	13:01	1	f.shooge	36	2007	2
100313	13:01	1	f.krare	37	2125	1
100313	13:01	1	f.dwode	38	2150	1
100313	13:01	1	f.shose	39	3333	2
100313	13:01	1	f.moosh	40	6534	5
100313	13:01	1	f.feef	41	1704	4
100313	13:01	1	f.zood	42	3202	6
100313	13:01	1	f.thwooge	43	2152	3
100313	13:01	1	f.shroop	44	1904	2
100313	13:01	1	f.noob	45	2297	8
100313	13:01	1	f.thage	46	1787	3
100313	13:01	1	f.thake	47	4178	3
100313	13:01	1	f.prale	48	5217	4
100313	13:01	1	f.fache	49	7583	3
100313	13:01	1	f.twogue	50	2127	1
100313	13:01	1	f.klafe	51	5960	3
100313	13:01	1	f.dwogue	52	7520	2
100313	13:01	1	f.tove	53	2091	6
100313	13:01	1	f.floove	54	2686	5
100313	13:01	1	f.dwothe	55	2504	1
100313	13:01	1	f.dofe	56	2739	3
100313	13:01	1	f.thwone	57	3739	2
100313	13:01	1	f.droog	58	1684	4
100313	13:01	1	f.yeeg	59	2446	4
100313	13:01	1	f.jafe	60	7194	4
100313	13:01	1	r.indifferent	1	3935	6
100313	13:01	1	r.snuggle	2	2152	9
100313	13:01	1	r.rain	3	4168	5
100313	13:01	1	r.warmth	4	1671	8
100313	13:01	1	r.rotten	5	2978	5
100313	13:01	1	r.kerosene	6	2201	3
100313	13:01	1	r.cemetery	7	2967	3
100313	13:01	1	r.meek	8	1830	5
100313	13:01	1	r.rape	9	2059	1
100313	13:01	1	r.coarse	10	4262	2
100313	13:01	1	r.death	11	1906	1
100313	13:01	1	r.humble	12	2892	7
100313	13:01	1	r.chair	13	1558	5
100313	13:01	1	r.outdoors	14	1774	8
100313	13:01	1	r.misery	15	1589	2
100313	13:01	1	r.sissy	16	1971	2
100313	13:01	1	r.circus	17	8570	5
100313	13:01	1	r.addicted	18	2963	5
100313	13:01	1	r.storm	19	2499	5
100313	13:01	1	r.wonder	20	1860	9
100313	13:01	1	r.tennis	21	1816	8
100313	13:01	1	r.rabies	22	2029	2
100313	13:01	1	r.inferior	23	1593	1
100313	13:01	1	r.hug	24	1599	8
100313	13:01	1	r.lie	25	1780	3
100313	13:01	1	r.pamphlet	26	2027	5
100313	13:01	1	r.insane	27	1775	5
100313	13:01	1	r.corner	28	1294	5
100313	13:01	1	r.hawk	29	1648	6
100313	13:01	1	r.nourish	30	1483	8
100313	13:01	1	r.gloom	31	1445	2
100313	13:01	1	r.troubled	32	1225	2
100313	13:01	1	r.employment	33	1190	5
100313	13:01	1	r.slow	34	1396	3
100313	13:01	1	r.astonished	35	2449	5
100313	13:01	1	r.nun	36	2533	5
100313	13:01	1	r.holiday	37	1302	9
100313	13:01	1	r.lighthouse	38	2511	7
100313	13:01	1	r.champion	39	1465	9
100313	13:01	1	r.bomb	40	1420	1
100313	13:01	1	r.infatuation	41	4576	6
100313	13:01	1	r.selfish	42	7367	4
100313	13:01	1	r.easy	43	2896	5
100313	13:01	1	r.victory	44	1643	7
100313	13:01	1	r.scalding	45	4710	4
100313	13:01	1	r.casino	46	1504	5
100313	13:01	1	r.masterful	47	1522	8
100313	13:01	1	r.regretful	48	1867	2
100313	13:01	1	r.lavish	49	2022	8
100313	13:01	1	r.star	50	2043	9
100313	13:01	1	r.foam	51	1375	5
100313	13:01	1	r.terrible	52	3501	3
100313	13:01	1	r.embattled	53	2008	5
100313	13:01	1	r.laughter	54	1405	9
100313	13:01	1	r.memory	55	2123	6
100313	13:01	1	r.stress	56	2044	1
100313	13:01	1	r.passage	57	7616	5
100313	13:01	1	r.education	58	1095	5
100313	13:01	1	r.justice	59	1680	6
100313	13:01	1	r.white	60	2443	6
100313	13:01	1	howtype	1	13789	7
100413	11:57	1	speed	1	2652	27
100413	11:57	1	error	2	1631	96
100413	11:57	1	whichhand	3	7020	right
100413	11:57	1	r.leisurely	1	8437	6
100413	11:57	1	r.curious	2	1724	5
100413	11:57	1	r.intellect	3	1397	7
100413	11:57	1	r.greed	4	1627	4
100413	11:57	1	r.handsome	5	2150	8
100413	11:57	1	r.city	6	3231	5
100413	11:57	1	r.festive	7	1308	6
100413	11:57	1	r.sheltered	8	1717	9
100413	11:57	1	r.muscular	9	1014	9
100413	11:57	1	r.rain	10	2035	5
100413	11:57	1	r.coward	11	2351	2
100413	11:57	1	r.lamb	12	9947	5
100413	11:57	1	r.neglect	13	3033	2
100413	11:57	1	r.angry	14	1262	2
100413	11:57	1	r.strong	15	1697	8
100413	11:57	1	r.quiet	16	1930	4
100413	11:57	1	r.lawn	17	1187	5
100413	11:57	1	r.guilty	18	1856	1
100413	11:57	1	r.knife	19	2956	3
100413	11:57	1	r.finger	20	869	5
100413	11:57	1	r.anxious	21	1271	5
100413	11:57	1	r.statue	22	1554	4
100413	11:57	1	r.twilight	23	1114	5
100413	11:57	1	r.hospital	24	1562	7
100413	11:57	1	r.noisy	25	3873	4
100413	11:57	1	r.smooth	26	1429	5
100413	11:57	1	r.journal	27	1057	5
100413	11:57	1	r.man	28	1517	7
100413	11:57	1	r.avalanche	29	2509	2
100413	11:57	1	r.savior	30	2671	5
100413	11:57	1	r.nourish	31	1202	5
100413	11:57	1	r.punishment	32	2255	1
100413	11:57	1	r.ridicule	33	1411	2
100413	11:57	1	r.joke	34	2376	5
100413	11:57	1	r.romantic	35	1423	7
100413	11:57	1	r.mail	36	1419	7
100413	11:57	1	r.torture	37	1856	1
100413	11:57	1	r.decorate	38	1796	5
100413	11:57	1	r.ignorance	39	4985	3
100413	11:57	1	r.win	40	8385	8
100413	11:57	1	r.surprised	41	2139	5
100413	11:57	1	r.hotel	42	3491	7
100413	11:57	1	r.unit	43	1687	9
100413	11:57	1	r.coffin	44	1176	1
100413	11:57	1	r.sinful	45	1190	1
100413	11:57	1	r.free	46	2333	8
100413	11:57	1	r.tornado	47	1268	2
100413	11:57	1	r.fire	48	1735	5
100413	11:57	1	r.sky	49	1200	5
100413	11:57	1	r.taxi	50	1173	5
100413	11:57	1	r.snake	51	1828	4
100413	11:57	1	r.mushroom	52	2080	2
100413	11:57	1	r.syphilis	53	2187	1
100413	11:57	1	r.crushed	54	1545	2
100413	11:57	1	r.poetry	55	3016	5
100413	11:57	1	r.ship	56	1518	6
100413	11:57	1	r.green	57	2183	5
100413	11:57	1	r.displeased	58	1422	1
100413	11:57	1	r.blubber	59	1610	5
100413	11:57	1	r.food	60	1295	5
100413	11:57	1	f.slabe	1	2489	2
100413	11:57	1	f.tave	2	1523	5
100413	11:57	1	f.dwoog	3	1628	2
100413	11:57	1	f.weeg	4	929	3
100413	11:57	1	f.thrashe	5	1841	5
100413	11:57	1	f.gweeth	6	541	6
100413	11:57	1	f.pothe	7	1301	9
100413	11:57	1	f.grabe	8	647	8
100413	11:57	1	f.thrache	9	1762	1
100413	11:57	1	f.dwame	10	761	5
100413	11:57	1	f.stogue	11	2719	6
100413	11:57	1	f.treeb	12	624	5
100413	11:57	1	f.twothe	13	4260	4
100413	11:57	1	f.swoove	14	505	6
100413	11:57	1	f.yeeb	15	506	8
100413	11:57	1	f.sloche	16	546	2
100413	11:57	1	f.smeeb	17	490	4
100413	11:57	1	f.shrooth	18	300	7
100413	11:57	1	f.snoosh	19	685	6
100413	11:57	1	f.twool	20	391	3
100413	11:57	1	f.shroor	21	1279	4
100413	11:57	1	f.loche	22	535	6
100413	11:57	1	f.yate	23	647	9
100413	11:57	1	f.stathe	24	1466	6
100413	11:57	1	f.kreef	25	540	4
100413	11:57	1	f.sneese	26	572	2
100413	11:57	1	f.joche	27	554	3
100413	11:57	1	f.gooch	28	457	6
100413	11:57	1	f.zoke	29	1173	9
100413	11:57	1	f.swofe	30	603	7
100413	11:57	1	f.snose	31	729	8
100413	11:57	1	f.gleef	32	825	6
100413	11:57	1	f.tofe	33	765	4
100413	11:57	1	f.brooth	34	620	5
100413	11:57	1	f.voom	35	537	5
100413	11:57	1	f.kwoove	36	473	2
100413	11:57	1	f.kleed	37	747	1
100413	11:57	1	f.dreer	38	1010	3
100413	11:57	1	f.spove	39	479	4
100413	11:57	1	f.jame	40	689	6
100413	11:57	1	f.jofe	41	795	8
100413	11:57	1	f.spage	42	648	4
100413	11:57	1	f.shrane	43	1027	6
100413	11:57	1	f.nague	44	503	1
100413	11:57	1	f.snogue	45	521	1
100413	11:57	1	f.twome	46	481	9
100413	11:57	1	f.kleel	47	635	9
100413	11:57	1	f.skogue	48	527	5
100413	11:57	1	f.kloob	49	990	6
100413	11:57	1	f.blave	50	2237	1
100413	11:57	1	f.feeg	51	497	4
100413	11:57	1	f.sneem	52	411	5
100413	11:57	1	f.drate	53	423	5
100413	11:57	1	f.sneech	54	548	6
100413	11:57	1	f.twose	55	387	8
100413	11:57	1	f.threep	56	561	1
100413	11:57	1	f.snoove	57	823	2
100413	11:57	1	f.skoge	58	772	4
100413	11:57	1	f.plool	59	2011	6
100413	11:57	1	f.jeeth	60	472	8
100413	11:57	1	howtype	1	9393	4
100413	12:30	1	speed	1	2585	47
100413	12:30	1	error	2	1681	95
100413	12:30	1	whichhand	3	9708	right
100413	12:30	1	f.kloog	1	7478	1
100413	12:30	1	f.kroof	2	3547	1
100413	12:30	1	f.wogue	3	2275	1
100413	12:30	1	f.sloshe	4	3166	1
100413	12:30	1	f.froog	5	6750	2
100413	12:30	1	f.sweeb	6	3471	1
100413	12:30	1	f.sleef	7	3098	2
100413	12:30	1	f.snoose	8	3156	2
100413	12:30	1	f.dwoot	9	2933	1
100413	12:30	1	f.zeep	10	6333	5
100413	12:30	1	f.freeb	11	2808	4
100413	12:30	1	f.jogue	12	6285	3
100413	12:30	1	f.steesh	13	5993	3
100413	12:30	1	f.gweech	14	7288	2
100413	12:30	1	f.frofe	15	1604	1
100413	12:30	1	f.dwooze	16	5506	4
100413	12:30	1	f.throod	17	3573	3
100413	12:30	1	f.plashe	18	2335	2
100413	12:30	1	f.skeeve	19	2407	4
100413	12:30	1	f.snoog	20	4253	2
100413	12:30	1	f.thweel	21	4378	2
100413	12:30	1	f.zode	22	3529	3
100413	12:30	1	f.mabe	23	3930	2
100413	12:30	1	f.broge	24	3891	2
100413	12:30	1	f.snoof	25	1966	5
100413	12:30	1	f.bague	26	2589	3
100413	12:30	1	f.peeth	27	4452	3
100413	12:30	1	f.floob	28	1441	2
100413	12:30	1	f.thathe	29	1445	2
100413	12:30	1	f.skave	30	6952	2
100413	12:30	1	f.bloge	31	4785	3
100413	12:30	1	f.snove	32	2497	4
100413	12:30	1	f.throoch	33	3171	3
100413	12:30	1	f.tage	34	5546	5
100413	12:30	1	f.klode	35	2140	3
100413	12:30	1	f.skove	36	3820	4
100413	12:30	1	f.krafe	37	3689	4
100413	12:30	1	f.floop	38	3076	5
100413	12:30	1	f.ploche	39	2480	3
100413	12:30	1	f.shreeb	40	2626	3
100413	12:30	1	f.kleeb	41	2630	3
100413	12:30	1	f.gleesh	42	1427	3
100413	12:30	1	f.thwool	43	4279	4
100413	12:30	1	f.vofe	44	3123	2
100413	12:30	1	f.krathe	45	7812	3
100413	12:30	1	f.zathe	46	3227	4
100413	12:30	1	f.droog	47	7432	4
100413	12:30	1	f.kwase	48	2374	1
100413	12:30	1	f.jeeth	49	1893	2
100413	12:30	1	f.toove	50	2535	4
100413	12:30	1	f.toof	51	4287	5
100413	12:30	1	f.shreeth	52	2499	3
100413	12:30	1	f.spobe	53	2069	1
100413	12:30	1	f.zoge	54	1688	4
100413	12:30	1	f.fleeg	55	3490	6
100413	12:30	1	f.gwoosh	56	2469	1
100413	12:30	1	f.blofe	57	2224	2
100413	12:30	1	f.shrofe	58	2997	1
100413	12:30	1	f.dwate	59	1283	1
100413	12:30	1	f.seech	60	2382	2
100413	12:30	1	r.impair	1	4936	6
100413	12:30	1	r.abundance	2	5329	8
100413	12:30	1	r.silk	3	2131	9
100413	12:30	1	r.insect	4	7787	3
100413	12:30	1	r.field	5	1876	9
100413	12:30	1	r.humor	6	1286	9
100413	12:30	1	r.poster	7	3457	7
100413	12:30	1	r.foot	8	3052	4
100413	12:30	1	r.alert	9	7040	5
100413	12:30	1	r.vanity	10	2294	9
100413	12:30	1	r.fragrance	11	928	9
100413	12:30	1	r.knot	12	2840	5
100413	12:30	1	r.loneliness	13	1669	1
100413	12:30	1	r.muffin	14	1864	9
100413	12:30	1	r.saint	15	1139	9
100413	12:30	1	r.disappoint	16	1459	1
100413	12:30	1	r.displeased	17	1285	1
100413	12:30	1	r.infection	18	1064	1
100413	12:30	1	r.gentle	19	2619	8
100413	12:30	1	r.crude	20	1264	1
100413	12:30	1	r.honor	21	3731	2
100413	12:30	1	r.rattle	22	3172	5
100413	12:30	1	r.humane	23	2139	9
100413	12:30	1	r.brave	24	1748	9
100413	12:30	1	r.window	25	2300	9
100413	12:30	1	r.plane	26	4948	7
100413	12:30	1	r.fat	27	1454	1
100413	12:30	1	r.green	28	4010	6
100413	12:30	1	r.hospital	29	4279	3
100413	12:30	1	r.paint	30	3011	6
100413	12:30	1	r.door	31	5128	9
100413	12:30	1	r.manure	32	3793	5
100413	12:30	1	r.filth	33	1448	1
100413	12:30	1	r.engaged	34	1619	9
100413	12:30	1	r.serious	35	2088	5
100413	12:30	1	r.tender	36	2467	7
100413	12:30	1	r.moody	37	1950	1
100413	12:30	1	r.fear	38	2430	1
100413	12:30	1	r.wink	39	2618	9
100413	12:30	1	r.untroubled	40	3976	9
100413	12:30	1	r.moral	41	967	9
100413	12:30	1	r.scapegoat	42	7461	4
100413	12:30	1	r.overcast	43	4986	3
100413	12:30	1	r.depression	44	3122	1
100413	12:30	1	r.gossip	45	1595	1
100413	12:30	1	r.radio	46	2761	8
100413	12:30	1	r.ulcer	47	1656	1
100413	12:30	1	r.repentant	48	1628	1
100413	12:30	1	r.elevator	49	1920	5
100413	12:30	1	r.shotgun	50	2161	1
100413	12:30	1	r.scream	51	4088	3
100413	12:30	1	r.autumn	52	2019	9
100413	12:30	1	r.lamp	53	2864	5
100413	12:30	1	r.lamb	54	2884	6
100413	12:30	1	r.history	55	2470	1
100413	12:30	1	r.anxious	56	2970	5
100413	12:30	1	r.syphilis	57	2097	5
100413	12:30	1	r.lonely	58	1747	1
100413	12:30	1	r.glass	59	4002	5
100413	12:30	1	r.taste	60	5113	6
100413	12:30	1	howtype	1	16145	5
100413	12:59	1	speed	1	3719	65
100413	12:59	1	error	2	1949	100
100413	12:59	1	whichhand	3	6909	Right
100413	12:59	1	r.immature	1	15629	4
100413	12:59	1	r.abortion	2	3277	1
100413	12:59	1	r.masterful	3	4312	6
100413	12:59	1	r.game	4	3290	5
100413	12:59	1	r.friend	5	2965	8
100413	12:59	1	r.pasta	6	2828	5
100413	12:59	1	r.slave	7	3609	3
100413	12:59	1	r.vest	8	5223	4
100413	12:59	1	r.sheltered	9	3781	5
100413	12:59	1	r.adult	10	4596	6
100413	12:59	1	r.refreshment	11	4058	6
100413	12:59	1	r.politeness	12	4279	8
100413	12:59	1	r.knot	13	2409	4
100413	12:59	1	r.sad	14	3479	3
100413	12:59	1	r.scum	15	1874	1
100413	12:59	1	r.irritate	16	1692	2
100413	12:59	1	r.truth	17	2134	6
100413	12:59	1	r.arrogant	18	2327	2
100413	12:59	1	r.enjoyment	19	1735	8
100413	12:59	1	r.greet	20	2167	6
100413	12:59	1	r.cruel	21	2199	3
100413	12:59	1	r.appliance	22	2107	5
100413	12:59	1	r.snuggle	23	1566	9
100413	12:59	1	r.trouble	24	2893	4
100413	12:59	1	r.terrified	25	2039	3
100413	12:59	1	r.innocent	26	3107	5
100413	12:59	1	r.inhabitant	27	1894	5
100413	12:59	1	r.kettle	28	1743	5
100413	12:59	1	r.swamp	29	1720	4
100413	12:59	1	r.boxer	30	2000	5
100413	12:59	1	r.scornful	31	1494	2
100413	12:59	1	r.inferior	32	1463	1
100413	12:59	1	r.air	33	1434	5
100413	12:59	1	r.toy	34	3862	6
100413	12:59	1	r.reptile	35	3386	3
100413	12:59	1	r.obsession	36	4465	4
100413	12:59	1	r.excitement	37	5012	7
100413	12:59	1	r.impotent	38	2355	4
100413	12:59	1	r.thermometer	39	1443	5
100413	12:59	1	r.wasp	40	1926	2
100413	12:59	1	r.lump	41	2015	1
100413	12:59	1	r.museum	42	2020	5
100413	12:59	1	r.alert	43	1657	4
100413	12:59	1	r.rotten	44	1108	1
100413	12:59	1	r.honest	45	1926	8
100413	12:59	1	r.memory	46	1990	6
100413	12:59	1	r.outrage	47	2285	5
100413	12:59	1	r.scar	48	1431	4
100413	12:59	1	r.fantasy	49	1851	8
100413	12:59	1	r.truck	50	1375	6
100413	12:59	1	r.alimony	51	3246	3
100413	12:59	1	r.muffin	52	2378	6
100413	12:59	1	r.manure	53	1905	1
100413	12:59	1	r.name	54	2314	7
100413	12:59	1	r.circle	55	1748	5
100413	12:59	1	r.suicide	56	1139	1
100413	12:59	1	r.fraud	57	1515	1
100413	12:59	1	r.blister	58	748	1
100413	12:59	1	r.headlight	59	2156	5
100413	12:59	1	r.beauty	60	2483	7
100413	12:59	1	f.yache	1	3743	5
100413	12:59	1	f.skeeg	2	4544	2
100413	12:59	1	f.thwothe	3	2976	4
100413	12:59	1	f.neeb	4	2599	3
100413	12:59	1	f.dwooth	5	1804	2
100413	12:59	1	f.skashe	6	2027	4
100413	12:59	1	f.troof	7	1999	5
100413	12:59	1	f.skofe	8	2405	4
100413	12:59	1	f.kwooge	9	2035	5
100413	12:59	1	f.bloosh	10	2087	7
100413	12:59	1	f.yoop	11	1698	6
100413	12:59	1	f.frague	12	2483	6
100413	12:59	1	f.weech	13	1837	6
100413	12:59	1	f.sashe	14	1682	8
100413	12:59	1	f.steef	15	1948	5
100413	12:59	1	f.dreege	16	1972	3
100413	12:59	1	f.plale	17	2123	5
100413	12:59	1	f.drooch	18	1612	4
100413	12:59	1	f.swoche	19	2257	7
100413	12:59	1	f.brabe	20	1860	6
100413	12:59	1	f.shogue	21	1919	5
100413	12:59	1	f.vame	22	1121	4
100413	12:59	1	f.noosh	23	1330	5
100413	12:59	1	f.kreef	24	1418	6
100413	12:59	1	f.kweeb	25	1239	4
100413	12:59	1	f.zeesh	26	1827	6
100413	12:59	1	f.skobe	27	1655	7
100413	12:59	1	f.dwode	28	1291	4
100413	12:59	1	f.prope	29	3276	4
100413	12:59	1	f.pague	30	2112	6
100413	12:59	1	f.thweeg	31	1369	4
100413	12:59	1	f.gache	32	1128	5
100413	12:59	1	f.twague	33	2080	8
100413	12:59	1	f.thwathe	34	2570	7
100413	12:59	1	f.sneef	35	1514	6
100413	12:59	1	f.slofe	36	3371	5
100413	12:59	1	f.thwone	37	3762	6
100413	12:59	1	f.snose	38	1745	6
100413	12:59	1	f.krogue	39	1034	4
100413	12:59	1	f.nofe	40	966	5
100413	12:59	1	f.thweer	41	2684	4
100413	12:59	1	f.prake	42	1271	5
100413	12:59	1	f.swabe	43	2074	6
100413	12:59	1	f.skague	44	4155	5
100413	12:59	1	f.theet	45	2780	6
100413	12:59	1	f.frothe	46	2412	8
100413	12:59	1	f.skabe	47	2953	3
100413	12:59	1	f.proom	48	1625	6
100413	12:59	1	f.slashe	49	2750	3
100413	12:59	1	f.brope	50	1646	5
100413	12:59	1	f.beeg	51	794	4
100413	12:59	1	f.shreese	52	1047	6
100413	12:59	1	f.poosh	53	2394	3
100413	12:59	1	f.kleep	54	2232	5
100413	12:59	1	f.twabe	55	2188	4
100413	12:59	1	f.preep	56	1707	4
100413	12:59	1	f.kloosh	57	2213	6
100413	12:59	1	f.soshe	58	1906	7
100413	12:59	1	f.foob	59	1156	5
100413	12:59	1	f.floog	60	2707	4
100413	12:59	1	howtype	1	13307	6
100413	13:30	1	speed	1	2989	55
100413	13:30	1	error	2	1740	85
