date	time	subject	trialcode	trialnum	latency	response
092413	13:57	1	speed	1	3302	54
092413	13:57	1	error	2	2090	96
092413	13:57	1	whichhand	3	7375	right
092413	13:57	1	f.snathe	1	8608	4
092413	13:57	1	f.gwave	2	1896	3
092413	13:57	1	f.gwote	3	1873	6
092413	13:57	1	f.speet	4	1172	6
092413	13:57	1	f.smoob	5	1298	5
092413	13:57	1	f.dwoge	6	1748	3
092413	13:57	1	f.groog	7	1603	2
092413	13:57	1	f.thwoge	8	1425	3
092413	13:57	1	f.blove	9	4045	5
092413	13:57	1	f.snoosh	10	1322	7
092413	13:57	1	f.smole	11	1483	6
092413	13:57	1	f.swoze	12	1549	3
092413	13:57	1	f.thrache	13	2588	1
092413	13:57	1	f.kleeb	14	2467	6
092413	13:57	1	f.kreeth	15	2230	5
092413	13:57	1	f.proot	16	1138	4
092413	13:57	1	f.shooge	17	1395	7
092413	13:57	1	f.tweeg	18	880	7
092413	13:57	1	f.nague	19	1210	6
092413	13:57	1	f.treeb	20	935	3
092413	13:57	1	f.glague	21	959	4
092413	13:57	1	f.mooth	22	1022	5
092413	13:57	1	f.blothe	23	1371	3
092413	13:57	1	f.seesh	24	1489	6
092413	13:57	1	f.sneeth	25	1100	7
092413	13:57	1	f.brooth	26	1405	4
092413	13:57	1	f.skave	27	1259	7
092413	13:57	1	f.twothe	28	1518	5
092413	13:57	1	f.smaze	29	1903	3
092413	13:57	1	f.loche	30	993	3
092413	13:57	1	f.plage	31	2006	2
092413	13:57	1	f.snafe	32	1532	3
092413	13:57	1	f.thwooch	33	2156	7
092413	13:57	1	f.glose	34	2572	7
092413	13:57	1	f.grabe	35	1763	3
092413	13:57	1	f.sneeb	36	1330	5
092413	13:57	1	f.smeege	37	1186	3
092413	13:57	1	f.shrare	38	1761	7
092413	13:57	1	f.dwafe	39	1231	4
092413	13:57	1	f.smeep	40	1435	2
092413	13:57	1	f.snothe	41	1296	3
092413	13:57	1	f.kwope	42	1257	4
092413	13:57	1	f.kwave	43	716	5
092413	13:57	1	f.blave	44	1461	7
092413	13:57	1	f.yeet	45	984	7
092413	13:57	1	f.feech	46	1774	7
092413	13:57	1	f.theeth	47	1237	7
092413	13:57	1	f.gwoose	48	1065	3
092413	13:57	1	f.smase	49	947	4
092413	13:57	1	f.twabe	50	1467	4
092413	13:57	1	f.gwane	51	1333	2
092413	13:57	1	f.freesh	52	1142	2
092413	13:57	1	f.threege	53	1509	2
092413	13:57	1	f.stafe	54	1359	8
092413	13:57	1	f.stose	55	2126	4
092413	13:57	1	f.klode	56	663	5
092413	13:57	1	f.klobe	57	801	3
092413	13:57	1	f.freeb	58	1334	7
092413	13:57	1	f.dabe	59	1119	4
092413	13:57	1	f.plole	60	1671	2
092413	13:57	1	r.waste	1	3140	3
092413	13:57	1	r.skeptical	2	1749	2
092413	13:57	1	r.surgery	3	1133	2
092413	13:57	1	r.radiant	4	2869	7
092413	13:57	1	r.letter	5	1680	8
092413	13:57	1	r.noose	6	2810	5
092413	13:57	1	r.garden	7	1216	7
092413	13:57	1	r.money	8	2277	9
092413	13:57	1	r.burn	9	1791	2
092413	13:57	1	r.pencil	10	2317	5
092413	13:57	1	r.christmas	11	2294	9
092413	13:57	1	r.addicted	12	1912	3
092413	13:57	1	r.wicked	13	1193	3
092413	13:57	1	r.slow	14	943	5
092413	13:57	1	r.basket	15	1270	8
092413	13:57	1	r.toothache	16	1673	2
092413	13:57	1	r.rigid	17	1219	2
092413	13:57	1	r.hotel	18	1512	7
092413	13:57	1	r.clothing	19	3569	8
092413	13:57	1	r.rock	20	1857	5
092413	13:57	1	r.applause	21	3372	9
092413	13:57	1	r.hide	22	1540	3
092413	13:57	1	r.traitor	23	1436	2
092413	13:57	1	r.ecstasy	24	3144	5
092413	13:57	1	r.manner	25	2952	8
092413	13:57	1	r.grateful	26	1376	8
092413	13:57	1	r.leprosy	27	2494	5
092413	13:57	1	r.terrified	28	1200	1
092413	13:57	1	r.adventure	29	1382	7
092413	13:57	1	r.tragedy	30	1300	2
092413	13:57	1	r.invest	31	1933	7
092413	13:57	1	r.gender	32	2086	6
092413	13:57	1	r.obsession	33	1784	5
092413	13:57	1	r.anxious	34	1750	5
092413	13:57	1	r.horror	35	1614	1
092413	13:57	1	r.banner	36	2139	6
092413	13:57	1	r.lawn	37	2243	6
092413	13:57	1	r.knot	38	1655	5
092413	13:57	1	r.measles	39	1434	3
092413	13:57	1	r.bliss	40	1006	2
092413	13:57	1	r.comedy	41	2116	8
092413	13:57	1	r.tool	42	1037	5
092413	13:57	1	r.win	43	1481	8
092413	13:57	1	r.controlling	44	1795	1
092413	13:57	1	r.vehicle	45	2041	8
092413	13:57	1	r.scum	46	1973	2
092413	13:57	1	r.fault	47	1779	1
092413	13:57	1	r.dreary	48	887	1
092413	13:57	1	r.foul	49	904	1
092413	13:57	1	r.smooth	50	2242	8
092413	13:57	1	r.sissy	51	2670	3
092413	13:57	1	r.aroused	52	2178	8
092413	13:57	1	r.garbage	53	1400	4
092413	13:57	1	r.menace	54	1918	3
092413	13:57	1	r.sexy	55	1863	9
092413	13:57	1	r.owl	56	1130	5
092413	13:57	1	r.hard	57	1962	4
092413	13:57	1	r.person	58	1201	3
092413	13:57	1	r.regretful	59	1238	2
092413	13:57	1	r.drown	60	1066	2
092413	13:57	1	howtype	1	9724	7
092513	13:24	1	speed	1	3080	41
092513	13:24	1	error	2	2897	100
092513	13:24	1	whichhand	3	3835	right
092513	13:24	1	r.answer	1	4712	5
092513	13:24	1	r.ridicule	2	3601	1
092513	13:24	1	r.zest	3	3568	6
092513	13:24	1	r.mighty	4	4991	7
092513	13:24	1	r.protected	5	2951	9
092513	13:24	1	r.orchestra	6	1934	9
092513	13:24	1	r.mushroom	7	2278	6
092513	13:24	1	r.mosquito	8	2289	1
092513	13:24	1	r.depressed	9	1388	1
092513	13:24	1	r.bowl	10	2306	5
092513	13:24	1	r.skijump	11	2700	6
092513	13:24	1	r.suspicious	12	2277	3
092513	13:24	1	r.rejected	13	1591	1
092513	13:24	1	r.rock	14	2150	5
092513	13:24	1	r.shriek	15	2110	1
092513	13:24	1	r.garden	16	1790	5
092513	13:24	1	r.hammer	17	2437	5
092513	13:24	1	r.bouquet	18	2426	8
092513	13:24	1	r.pervert	19	1725	1
092513	13:24	1	r.resent	20	1262	1
092513	13:24	1	r.cozy	21	1889	9
092513	13:24	1	r.ulcer	22	1555	1
092513	13:24	1	r.stress	23	1403	1
092513	13:24	1	r.building	24	1705	5
092513	13:24	1	r.hit	25	1482	1
092513	13:24	1	r.clumsy	26	2412	2
092513	13:24	1	r.fatigued	27	1178	1
092513	13:24	1	r.addicted	28	1032	1
092513	13:24	1	r.impair	29	1028	1
092513	13:24	1	r.mold	30	943	1
092513	13:24	1	r.doll	31	1863	8
092513	13:24	1	r.humane	32	1762	8
092513	13:24	1	r.butterfly	33	3417	9
092513	13:24	1	r.malaria	34	1710	1
092513	13:24	1	r.wife	35	3007	9
092513	13:24	1	r.liberty	36	1621	9
092513	13:24	1	r.rattle	37	1946	5
092513	13:24	1	r.grateful	38	1658	9
092513	13:24	1	r.relaxed	39	1005	9
092513	13:24	1	r.despairing	40	1891	1
092513	13:24	1	r.plain	41	2925	3
092513	13:24	1	r.muscular	42	1982	9
092513	13:24	1	r.art	43	1997	7
092513	13:24	1	r.chin	44	1666	5
092513	13:24	1	r.surgery	45	1469	1
092513	13:24	1	r.irritate	46	1264	1
092513	13:24	1	r.rancid	47	1163	1
092513	13:24	1	r.terrified	48	873	1
092513	13:24	1	r.grief	49	852	1
092513	13:24	1	r.kerosene	50	3159	5
092513	13:24	1	r.noose	51	3303	1
092513	13:24	1	r.victory	52	1729	9
092513	13:24	1	r.neglect	53	1705	1
092513	13:24	1	r.afraid	54	1106	1
092513	13:24	1	r.blackmail	55	1140	1
092513	13:24	1	r.cockroach	56	1044	1
092513	13:24	1	r.city	57	2391	6
092513	13:24	1	r.busybody	58	1742	5
092513	13:24	1	r.party	59	1734	6
092513	13:24	1	r.greet	60	1039	6
092513	13:24	1	f.smeeze	1	4345	3
092513	13:24	1	f.yeeve	2	2618	3
092513	13:24	1	f.yeeb	3	2127	3
092513	13:24	1	f.throbe	4	1543	5
092513	13:24	1	f.snoon	5	1583	5
092513	13:24	1	f.thwose	6	757	5
092513	13:24	1	f.vage	7	3148	3
092513	13:24	1	f.sleeg	8	1340	5
092513	13:24	1	f.prape	9	852	5
092513	13:24	1	f.gwothe	10	2960	4
092513	13:24	1	f.droche	11	1111	4
092513	13:24	1	f.steef	12	912	4
092513	13:24	1	f.jague	13	2080	4
092513	13:24	1	f.thwoose	14	2187	5
092513	13:24	1	f.smogue	15	1617	5
092513	13:24	1	f.sleer	16	726	5
092513	13:24	1	f.gwoove	17	2383	6
092513	13:24	1	f.yate	18	2757	5
092513	13:24	1	f.skathe	19	933	5
092513	13:24	1	f.throgue	20	725	5
092513	13:24	1	f.froof	21	654	5
092513	13:24	1	f.gweeb	22	553	5
092513	13:24	1	f.zoog	23	608	5
092513	13:24	1	f.kwape	24	525	5
092513	13:24	1	f.shroot	25	1086	5
092513	13:24	1	f.veed	26	1248	5
092513	13:24	1	f.voove	27	2363	3
092513	13:24	1	f.stoof	28	1418	5
092513	13:24	1	f.droof	29	759	5
092513	13:24	1	f.swooch	30	1686	6
092513	13:24	1	f.trook	31	1153	5
092513	13:24	1	f.kloop	32	728	5
092513	13:24	1	f.thashe	33	712	5
092513	13:24	1	f.nache	34	937	4
092513	13:24	1	f.thooge	35	2065	4
092513	13:24	1	f.kroshe	36	964	5
092513	13:24	1	f.thave	37	770	4
092513	13:24	1	f.toge	38	897	4
092513	13:24	1	f.gleech	39	1106	5
092513	13:24	1	f.gloke	40	659	5
092513	13:24	1	f.skeek	41	670	5
092513	13:24	1	f.bashe	42	583	5
092513	13:24	1	f.dweer	43	558	5
092513	13:24	1	f.dweek	44	517	5
092513	13:24	1	f.zeesh	45	486	5
092513	13:24	1	f.yeeg	46	455	5
092513	13:24	1	f.broor	47	506	5
092513	13:24	1	f.twooge	48	571	4
092513	13:24	1	f.veem	49	1186	4
092513	13:24	1	f.freef	50	639	4
092513	13:24	1	f.klogue	51	641	4
092513	13:24	1	f.dwone	52	511	5
092513	13:24	1	f.shroom	53	1161	5
092513	13:24	1	f.floog	54	519	5
092513	13:24	1	f.swoge	55	535	5
092513	13:24	1	f.glool	56	511	5
092513	13:24	1	f.breeb	57	583	5
092513	13:24	1	f.jabe	58	445	5
092513	13:24	1	f.jate	59	520	5
092513	13:24	1	f.sheeg	60	521	5
092513	13:24	1	howtype	1	9943	4
092613	10:55	1	speed	1	5999	51
092613	10:55	1	error	2	2129	100
092613	10:55	1	whichhand	3	6698	right
092613	10:55	1	r.couple	1	16948	7
092613	10:55	1	r.detest	2	4353	1
092613	10:55	1	r.brother	3	4137	8
092613	10:55	1	r.item	4	3042	5
092613	10:55	1	r.thorn	5	2390	4
092613	10:55	1	r.blister	6	1684	2
092613	10:55	1	r.cuddle	7	3903	9
092613	10:55	1	r.obey	8	2713	4
092613	10:55	1	r.obnoxious	9	1946	1
092613	10:55	1	r.violent	10	1962	3
092613	10:55	1	r.ulcer	11	1841	1
092613	10:55	1	r.pencil	12	2357	5
092613	10:55	1	r.gender	13	2493	6
092613	10:55	1	r.thoughtful	14	2183	7
092613	10:55	1	r.church	15	2021	7
092613	10:55	1	r.brave	16	2050	9
092613	10:55	1	r.rollercoaster	17	1654	9
092613	10:55	1	r.grime	18	1394	1
092613	10:55	1	r.poverty	19	1831	2
092613	10:55	1	r.proud	20	2516	8
092613	10:55	1	r.punishment	21	2741	5
092613	10:55	1	r.dazzle	22	2221	9
092613	10:55	1	r.dream	23	1986	7
092613	10:55	1	r.lion	24	1897	9
092613	10:55	1	r.god	25	1818	5
092613	10:55	1	r.dignified	26	1535	6
092613	10:55	1	r.arrogant	27	1335	3
092613	10:55	1	r.maggot	28	1280	1
092613	10:55	1	r.tune	29	1978	3
092613	10:55	1	r.engine	30	2512	5
092613	10:55	1	r.runner	31	1401	5
092613	10:55	1	r.perfection	32	1695	8
092613	10:55	1	r.seasick	33	1760	3
092613	10:55	1	r.alley	34	2071	4
092613	10:55	1	r.ink	35	2106	7
092613	10:55	1	r.profit	36	2108	9
092613	10:55	1	r.toothache	37	1278	1
092613	10:55	1	r.snow	38	2224	8
092613	10:55	1	r.perfume	39	1861	6
092613	10:55	1	r.injury	40	2008	2
092613	10:55	1	r.hopeful	41	1621	8
092613	10:55	1	r.white	42	2722	6
092613	10:55	1	r.wit	43	2604	4
092613	10:55	1	r.seat	44	3873	5
092613	10:55	1	r.rattle	45	2589	6
092613	10:55	1	r.relaxed	46	1524	9
092613	10:55	1	r.deformed	47	1749	2
092613	10:55	1	r.warmth	48	1964	7
092613	10:55	1	r.thermometer	49	2139	5
092613	10:55	1	r.pinch	50	1443	1
092613	10:55	1	r.depressed	51	1079	1
092613	10:55	1	r.passage	52	2025	3
092613	10:55	1	r.obsession	53	1550	3
092613	10:55	1	r.hostage	54	1678	1
092613	10:55	1	r.putrid	55	1760	1
092613	10:55	1	r.banner	56	1647	5
092613	10:55	1	r.mail	57	2762	6
092613	10:55	1	r.red	58	1946	8
092613	10:55	1	r.context	59	3649	4
092613	10:55	1	r.chocolate	60	1382	9
092613	10:55	1	f.bleeth	1	2651	1
092613	10:55	1	f.shooch	2	3031	3
092613	10:55	1	f.thoog	3	2404	6
092613	10:55	1	f.skoge	4	1985	5
092613	10:55	1	f.freeg	5	1928	4
092613	10:55	1	f.swobe	6	2880	7
092613	10:55	1	f.kleeb	7	2411	7
092613	10:55	1	f.blafe	8	2248	3
092613	10:55	1	f.plole	9	4420	5
092613	10:55	1	f.stogue	10	2154	4
092613	10:55	1	f.snage	11	2457	6
092613	10:55	1	f.drood	12	2133	7
092613	10:55	1	f.jabe	13	1446	5
092613	10:55	1	f.swooge	14	4113	6
092613	10:55	1	f.smashe	15	1803	7
092613	10:55	1	f.groosh	16	1256	1
092613	10:55	1	f.plook	17	1308	1
092613	10:55	1	f.sneesh	18	2373	3
092613	10:55	1	f.kwome	19	2332	2
092613	10:55	1	f.cheed	20	2701	4
092613	10:55	1	f.ploche	21	3030	5
092613	10:55	1	f.snobe	22	1603	5
092613	10:55	1	f.tague	23	1801	6
092613	10:55	1	f.thofe	24	2542	4
092613	10:55	1	f.thrake	25	2502	3
092613	10:55	1	f.cheeb	26	4384	5
092613	10:55	1	f.zeech	27	2687	4
092613	10:55	1	f.gloche	28	2802	5
092613	10:55	1	f.thope	29	3368	7
092613	10:55	1	f.boosh	30	2615	7
092613	10:55	1	f.toog	31	1965	5
092613	10:55	1	f.thwoof	32	2956	3
092613	10:55	1	f.spage	33	2172	3
092613	10:55	1	f.plave	34	2131	5
092613	10:55	1	f.smoze	35	2555	6
092613	10:55	1	f.thwoshe	36	2427	5
092613	10:55	1	f.snofe	37	2167	3
092613	10:55	1	f.pathe	38	3150	5
092613	10:55	1	f.spoom	39	2702	6
092613	10:55	1	f.thoof	40	2792	6
092613	10:55	1	f.speep	41	2870	6
092613	10:55	1	f.meesh	42	2570	7
092613	10:55	1	f.thathe	43	2329	1
092613	10:55	1	f.sague	44	1825	2
092613	10:55	1	f.kabe	45	2214	5
092613	10:55	1	f.yeef	46	2531	2
092613	10:55	1	f.freep	47	2356	4
092613	10:55	1	f.soshe	48	3476	3
092613	10:55	1	f.vove	49	2510	7
092613	10:55	1	f.thooge	50	4136	5
092613	10:55	1	f.kwove	51	2729	3
092613	10:55	1	f.chome	52	2873	6
092613	10:55	1	f.stathe	53	3964	3
092613	10:55	1	f.gwane	54	1172	2
092613	10:55	1	f.kweeg	55	2139	1
092613	10:55	1	f.thrave	56	2435	6
092613	10:55	1	f.zeeg	57	1776	5
092613	10:55	1	f.zeed	58	1951	4
092613	10:55	1	f.shreeth	59	1494	4
092613	10:55	1	f.zoop	60	1952	8
092613	10:55	1	howtype	1	11550	3
092713	14:30	1	speed	1	3405	47
092713	14:30	1	error	2	2654	97
092713	14:30	1	whichhand	3	5642	Right
092713	14:30	1	r.grateful	1	5734	9
092713	14:30	1	r.gripe	2	3488	1
092713	14:30	1	r.excellence	3	2659	9
092713	14:30	1	r.table	4	1702	5
092713	14:30	1	r.pencil	5	1463	5
092713	14:30	1	r.contempt	6	2634	1
092713	14:30	1	r.trunk	7	3671	5
092713	14:30	1	r.rat	8	3650	5
092713	14:30	1	r.pungent	9	2063	2
092713	14:30	1	r.engaged	10	1562	9
092713	14:30	1	r.baby	11	1352	8
092713	14:30	1	r.enjoyment	12	1768	9
092713	14:30	1	r.mother	13	1943	9
092713	14:30	1	r.christmas	14	2190	8
092713	14:30	1	r.savior	15	2461	7
092713	14:30	1	r.penalty	16	2280	1
092713	14:30	1	r.street	17	1075	5
092713	14:30	1	r.fire	18	1877	7
092713	14:30	1	r.idiot	19	2264	1
092713	14:30	1	r.beverage	20	1427	8
092713	14:30	1	r.sun	21	1279	9
092713	14:30	1	r.idea	22	1465	7
092713	14:30	1	r.ocean	23	1316	9
092713	14:30	1	r.statue	24	1853	5
092713	14:30	1	r.thought	25	1416	7
092713	14:30	1	r.cancer	26	1477	1
092713	14:30	1	r.triumphant	27	1487	8
092713	14:30	1	r.scurvy	28	1705	5
092713	14:30	1	r.grin	29	1427	9
092713	14:30	1	r.fatigued	30	1519	1
092713	14:30	1	r.book	31	1480	7
092713	14:30	1	r.pizza	32	1378	7
092713	14:30	1	r.wink	33	2000	5
092713	14:30	1	r.frigid	34	1630	2
092713	14:30	1	r.ink	35	1346	5
092713	14:30	1	r.fame	36	2258	8
092713	14:30	1	r.leisurely	37	1533	9
092713	14:30	1	r.garden	38	2373	6
092713	14:30	1	r.secure	39	3365	7
092713	14:30	1	r.charm	40	1828	8
092713	14:30	1	r.invest	41	3832	7
092713	14:30	1	r.vomit	42	1749	1
092713	14:30	1	r.enraged	43	1813	1
092713	14:30	1	r.iron	44	2186	5
092713	14:30	1	r.child	45	1816	8
092713	14:30	1	r.pillow	46	1501	8
092713	14:30	1	r.hairdryer	47	1767	5
092713	14:30	1	r.listless	48	2110	5
092713	14:30	1	r.month	49	983	5
092713	14:30	1	r.burdened	50	2069	1
092713	14:30	1	r.grime	51	1696	1
092713	14:30	1	r.cannon	52	2833	5
092713	14:30	1	r.birthday	53	1766	8
092713	14:30	1	r.afraid	54	1845	1
092713	14:30	1	r.insolent	55	2673	5
092713	14:30	1	r.metal	56	1436	5
092713	14:30	1	r.feeble	57	1232	5
092713	14:30	1	r.circus	58	2196	4
092713	14:30	1	r.mind	59	1378	7
092713	14:30	1	r.vigorous	60	2096	5
092713	14:30	1	f.sneeve	1	4096	5
092713	14:30	1	f.broob	2	2355	5
092713	14:30	1	f.zeech	3	1466	5
092713	14:30	1	f.joog	4	3141	5
092713	14:30	1	f.shooch	5	1838	3
092713	14:30	1	f.spobe	6	3354	3
092713	14:30	1	f.bleeg	7	4058	6
092713	14:30	1	f.sloof	8	2086	4
092713	14:30	1	f.thofe	9	4328	5
092713	14:30	1	f.fleeve	10	2041	5
092713	14:30	1	f.frooth	11	1998	6
092713	14:30	1	f.thwook	12	4012	5
092713	14:30	1	f.twague	13	5105	4
092713	14:30	1	f.thwake	14	1660	7
092713	14:30	1	f.trage	15	2103	6
092713	14:30	1	f.sloshe	16	3976	6
092713	14:30	1	f.spathe	17	3288	7
092713	14:30	1	f.kleesh	18	4330	6
092713	14:30	1	f.troche	19	4379	6
092713	14:30	1	f.shrane	20	2666	7
092713	14:30	1	f.spoog	21	2718	7
092713	14:30	1	f.thwoosh	22	3527	7
092713	14:30	1	f.skage	23	2800	4
092713	14:30	1	f.plooch	24	1670	7
092713	14:30	1	f.thoche	25	4657	6
092713	14:30	1	f.freech	26	1605	7
092713	14:30	1	f.skoove	27	1931	5
092713	14:30	1	f.dweeg	28	2035	5
092713	14:30	1	f.thwate	29	2727	5
092713	14:30	1	f.blave	30	2200	5
092713	14:30	1	f.gwane	31	2222	7
092713	14:30	1	f.shrague	32	2915	5
092713	14:30	1	f.thwaze	33	1756	6
092713	14:30	1	f.gweesh	34	1348	5
092713	14:30	1	f.drofe	35	2099	5
092713	14:30	1	f.preeth	36	2341	5
092713	14:30	1	f.blashe	37	1661	6
092713	14:30	1	f.dwoon	38	2376	5
092713	14:30	1	f.neeth	39	1823	5
092713	14:30	1	f.throke	40	2668	4
092713	14:30	1	f.sweeze	41	1447	5
092713	14:30	1	f.skake	42	1995	5
092713	14:30	1	f.skeef	43	1488	6
092713	14:30	1	f.blathe	44	1266	5
092713	14:30	1	f.spooge	45	1413	6
092713	14:30	1	f.zeeb	46	3410	4
092713	14:30	1	f.togue	47	1879	4
092713	14:30	1	f.froge	48	2994	6
092713	14:30	1	f.chool	49	1736	6
092713	14:30	1	f.wathe	50	4024	6
092713	14:30	1	f.gwoof	51	1510	4
092713	14:30	1	f.shreech	52	2822	7
092713	14:30	1	f.thoosh	53	1612	8
092713	14:30	1	f.dweem	54	2361	3
092713	14:30	1	f.tweem	55	3952	3
092713	14:30	1	f.pleek	56	1704	3
092713	14:30	1	f.grobe	57	2370	5
092713	14:30	1	f.voshe	58	2297	6
092713	14:30	1	f.veege	59	2267	5
092713	14:30	1	f.yage	60	2262	6
092713	14:30	1	howtype	1	5367	6
092713	15:32	1	speed	1	3348	48
092713	15:32	1	error	2	2270	91
092713	15:32	1	whichhand	3	7026	right
092713	15:32	1	r.bathroom	1	7792	9
092713	15:32	1	r.damage	2	2568	1
092713	15:32	1	r.talent	3	3839	9
092713	15:32	1	r.meek	4	8820	2
092713	15:32	1	r.stench	5	2331	1
092713	15:32	1	r.hawk	6	3595	2
092713	15:32	1	r.headache	7	1322	1
092713	15:32	1	r.cuddle	8	1626	9
092713	15:32	1	r.star	9	3343	8
092713	15:32	1	r.suspicious	10	2207	3
092713	15:32	1	r.sunrise	11	2117	9
092713	15:32	1	r.leader	12	1102	9
092713	15:32	1	r.bandage	13	1551	1
092713	15:32	1	r.vampire	14	990	1
092713	15:32	1	r.theory	15	3692	5
092713	15:32	1	r.safe	16	1447	9
092713	15:32	1	r.suffocate	17	1226	1
092713	15:32	1	r.aloof	18	2318	5
092713	15:32	1	r.assassin	19	1528	1
092713	15:32	1	r.cockroach	20	1168	1
092713	15:32	1	r.success	21	1407	9
092713	15:32	1	r.butter	22	3180	2
092713	15:32	1	r.afraid	23	2499	2
092713	15:32	1	r.gangrene	24	1348	1
092713	15:32	1	r.present	25	3844	9
092713	15:32	1	r.grief	26	1280	1
092713	15:32	1	r.social	27	2210	8
092713	15:32	1	r.mind	28	2063	9
092713	15:32	1	r.reward	29	1554	9
092713	15:32	1	r.chocolate	30	850	9
092713	15:32	1	r.jug	31	2029	9
092713	15:32	1	r.skijump	32	1234	9
092713	15:32	1	r.fascinate	33	798	9
092713	15:32	1	r.mad	34	2283	3
092713	15:32	1	r.spring	35	2421	9
092713	15:32	1	r.beauty	36	843	9
092713	15:32	1	r.invader	37	1830	1
092713	15:32	1	r.aggressive	38	1483	1
092713	15:32	1	r.desire	39	1589	9
092713	15:32	1	r.movie	40	1235	9
092713	15:32	1	r.victory	41	895	9
092713	15:32	1	r.listless	42	1824	1
092713	15:32	1	r.knowledge	43	1534	9
092713	15:32	1	r.coffin	44	1230	1
092713	15:32	1	r.terrible	45	1234	1
092713	15:32	1	r.trunk	46	3030	5
092713	15:32	1	r.cancer	47	1163	1
092713	15:32	1	r.king	48	1297	9
092713	15:32	1	r.sailboat	49	1194	9
092713	15:32	1	r.demon	50	1104	1
092713	15:32	1	r.jolly	51	1354	9
092713	15:32	1	r.excuse	52	2929	5
092713	15:32	1	r.fork	53	2321	5
092713	15:32	1	r.wasp	54	1483	1
092713	15:32	1	r.taxi	55	2221	5
092713	15:32	1	r.baby	56	1514	9
092713	15:32	1	r.guillotine	57	1091	1
092713	15:32	1	r.sick	58	1229	1
092713	15:32	1	r.displeased	59	1089	1
092713	15:32	1	r.agility	60	1595	9
092713	15:32	1	f.prooch	1	4976	1
092713	15:32	1	f.thweeze	2	1551	1
092713	15:32	1	f.floof	3	3311	5
092713	15:32	1	f.mobe	4	1328	5
092713	15:32	1	f.dweet	5	4568	1
092713	15:32	1	f.thrale	6	1648	1
092713	15:32	1	f.dwooze	7	1412	1
092713	15:32	1	f.gleef	8	1169	1
092713	15:32	1	f.poob	9	3047	5
092713	15:32	1	f.smoze	10	1675	1
092713	15:32	1	f.pleeth	11	982	1
092713	15:32	1	f.drase	12	900	1
092713	15:32	1	f.ploosh	13	838	1
092713	15:32	1	f.thwoog	14	946	1
092713	15:32	1	f.toshe	15	1745	5
092713	15:32	1	f.gweege	16	1617	5
092713	15:32	1	f.zeeth	17	2846	1
092713	15:32	1	f.prathe	18	1002	1
092713	15:32	1	f.spope	19	1047	1
092713	15:32	1	f.tweel	20	3082	1
092713	15:32	1	f.smone	21	5525	9
092713	15:32	1	f.zeech	22	1958	1
092713	15:32	1	f.slobe	23	2966	3
092713	15:32	1	f.kloob	24	2957	5
092713	15:32	1	f.gweer	25	4405	1
092713	15:32	1	f.snooth	26	1540	5
092713	15:32	1	f.flabe	27	1348	5
092713	15:32	1	f.jeech	28	1124	1
092713	15:32	1	f.ploshe	29	2076	5
092713	15:32	1	f.nabe	30	1711	5
092713	15:32	1	f.pleeve	31	3527	9
092713	15:32	1	f.spote	32	1800	8
092713	15:32	1	f.bleel	33	1638	1
092713	15:32	1	f.gweel	34	1362	1
092713	15:32	1	f.breeth	35	2409	9
092713	15:32	1	f.dwoshe	36	1990	5
092713	15:32	1	f.klood	37	2068	1
092713	15:32	1	f.yape	38	2232	1
092713	15:32	1	f.shrore	39	1764	9
092713	15:32	1	f.dwoke	40	4779	5
092713	15:32	1	f.smeen	41	4754	7
092713	15:32	1	f.shroze	42	1899	3
092713	15:32	1	f.smobe	43	3284	3
092713	15:32	1	f.veek	44	1167	3
092713	15:32	1	f.swool	45	1646	7
092713	15:32	1	f.zoor	46	2073	3
092713	15:32	1	f.droge	47	1300	2
092713	15:32	1	f.gwoke	48	702	3
092713	15:32	1	f.smeed	49	3071	7
092713	15:32	1	f.bloob	50	1722	9
092713	15:32	1	f.jeesh	51	2867	1
092713	15:32	1	f.weeth	52	1367	4
092713	15:32	1	f.fope	53	2277	5
092713	15:32	1	f.nogue	54	1376	5
092713	15:32	1	f.pleer	55	1822	2
092713	15:32	1	f.kweese	56	1851	1
092713	15:32	1	f.zoog	57	1151	1
092713	15:32	1	f.slashe	58	2022	7
092713	15:32	1	f.dwood	59	2027	5
092713	15:32	1	f.snoob	60	2335	2
092713	15:32	1	howtype	1	13238	7
093013	10:59	1	speed	1	8495	45
093013	10:59	1	error	2	2074	93
093013	10:59	1	whichhand	3	8807	right
093013	10:59	1	r.mutation	1	10846	5
093013	10:59	1	r.bar	2	3461	5
093013	10:59	1	r.salad	3	3585	9
093013	10:59	1	r.tree	4	3168	9
093013	10:59	1	r.stink	5	2807	1
093013	10:59	1	r.stagnant	6	2997	4
093013	10:59	1	r.blister	7	2299	1
093013	10:59	1	r.starving	8	1733	1
093013	10:59	1	r.evil	9	1589	1
093013	10:59	1	r.rough	10	1892	1
093013	10:59	1	r.plane	11	3061	7
093013	10:59	1	r.proud	12	2185	9
093013	10:59	1	r.custom	13	1455	9
093013	10:59	1	r.music	14	867	9
093013	10:59	1	r.fungus	15	1478	1
093013	10:59	1	r.honest	16	1496	9
093013	10:59	1	r.body	17	4249	5
093013	10:59	1	r.resent	18	2117	1
093013	10:59	1	r.scared	19	1535	1
093013	10:59	1	r.afraid	20	1079	1
093013	10:59	1	r.tender	21	2121	5
093013	10:59	1	r.respectful	22	1570	9
093013	10:59	1	r.nice	23	785	9
093013	10:59	1	r.gun	24	1767	1
093013	10:59	1	r.sapphire	25	2102	9
093013	10:59	1	r.bless	26	743	9
093013	10:59	1	r.diver	27	1887	5
093013	10:59	1	r.fight	28	3897	5
093013	10:59	1	r.snake	29	2291	1
093013	10:59	1	r.inhabitant	30	2806	1
093013	10:59	1	r.murderer	31	1148	1
093013	10:59	1	r.sunlight	32	1483	9
093013	10:59	1	r.hardship	33	2053	4
093013	10:59	1	r.daylight	34	1185	9
093013	10:59	1	r.lion	35	3087	5
093013	10:59	1	r.cold	36	1138	5
093013	10:59	1	r.torture	37	1986	1
093013	10:59	1	r.spring	38	1440	9
093013	10:59	1	r.king	39	4764	5
093013	10:59	1	r.agility	40	3580	5
093013	10:59	1	r.errand	41	3947	5
093013	10:59	1	r.morgue	42	1211	5
093013	10:59	1	r.art	43	1488	9
093013	10:59	1	r.lonely	44	1626	1
093013	10:59	1	r.masterful	45	2630	1
093013	10:59	1	r.athletics	46	1746	9
093013	10:59	1	r.rude	47	1530	1
093013	10:59	1	r.chin	48	1466	3
093013	10:59	1	r.violin	49	1308	9
093013	10:59	1	r.alone	50	1534	1
093013	10:59	1	r.window	51	4526	4
093013	10:59	1	r.muddy	52	1016	4
093013	10:59	1	r.game	53	1860	9
093013	10:59	1	r.love	54	632	9
093013	10:59	1	r.candy	55	636	9
093013	10:59	1	r.crime	56	1439	1
093013	10:59	1	r.sphere	57	3028	5
093013	10:59	1	r.egg	58	3704	6
093013	10:59	1	r.material	59	2123	5
093013	10:59	1	r.rollercoaster	60	1996	6
093013	10:59	1	f.fooch	1	5919	5
093013	10:59	1	f.shobe	2	2617	4
093013	10:59	1	f.choog	3	1615	6
093013	10:59	1	f.seeb	4	820	5
093013	10:59	1	f.theech	5	587	5
093013	10:59	1	f.tashe	6	1679	4
093013	10:59	1	f.stoof	7	1568	4
093013	10:59	1	f.feech	8	952	7
093013	10:59	1	f.shoose	9	663	4
093013	10:59	1	f.shoog	10	377	6
093013	10:59	1	f.throop	11	383	5
093013	10:59	1	f.shogue	12	293	5
093013	10:59	1	f.blashe	13	318	5
093013	10:59	1	f.shrofe	14	327	5
093013	10:59	1	f.fleeth	15	750	5
093013	10:59	1	f.chage	16	1509	7
093013	10:59	1	f.voob	17	382	5
093013	10:59	1	f.yove	18	1268	3
093013	10:59	1	f.foof	19	334	5
093013	10:59	1	f.peeg	20	1583	8
093013	10:59	1	f.thwague	21	332	5
093013	10:59	1	f.plale	22	309	5
093013	10:59	1	f.zoke	23	309	5
093013	10:59	1	f.yobe	24	278	5
093013	10:59	1	f.zashe	25	248	5
093013	10:59	1	f.wooth	26	283	5
093013	10:59	1	f.vome	27	485	5
093013	10:59	1	f.krooch	28	238	5
093013	10:59	1	f.gweek	29	235	5
093013	10:59	1	f.zote	30	254	5
093013	10:59	1	f.glooge	31	170	5
093013	10:59	1	f.thwoob	32	664	5
093013	10:59	1	f.twore	33	274	5
093013	10:59	1	f.twage	34	237	5
093013	10:59	1	f.neech	35	264	5
093013	10:59	1	f.soshe	36	251	5
093013	10:59	1	f.plove	37	270	5
093013	10:59	1	f.frobe	38	184	5
093013	10:59	1	f.froove	39	590	5
093013	10:59	1	f.lache	40	237	5
093013	10:59	1	f.drooch	41	280	5
093013	10:59	1	f.gothe	42	402	5
093013	10:59	1	f.twoshe	43	311	5
093013	10:59	1	f.frove	44	271	5
093013	10:59	1	f.frothe	45	282	5
093013	10:59	1	f.smoze	46	732	5
093013	10:59	1	f.dwome	47	348	5
093013	10:59	1	f.pashe	48	538	5
093013	10:59	1	f.kweeb	49	290	5
093013	10:59	1	f.gwoosh	50	691	5
093013	10:59	1	f.twooge	51	509	5
093013	10:59	1	f.yeem	52	294	5
093013	10:59	1	f.skeeg	53	311	5
093013	10:59	1	f.treem	54	280	5
093013	10:59	1	f.spoob	55	273	5
093013	10:59	1	f.fabe	56	508	5
093013	10:59	1	f.gweeth	57	269	5
093013	10:59	1	f.sleeb	58	336	5
093013	10:59	1	f.smeeb	59	280	5
093013	10:59	1	f.spogue	60	289	5
093013	10:59	1	howtype	1	14513	4
093013	15:31	1	speed	1	2971	46
093013	15:31	1	error	2	2308	97
093013	15:31	1	whichhand	3	4167	Right
093013	15:31	1	r.peace	1	10551	7
093013	15:31	1	r.liberty	2	3986	5
093013	15:31	1	r.irritate	3	3609	3
093013	15:31	1	r.door	4	4597	4
093013	15:31	1	r.assault	5	3061	1
093013	15:31	1	r.face	6	4360	6
093013	15:31	1	r.cyclone	7	10000	6
093013	15:31	1	r.lake	8	4336	8
093013	15:31	1	r.bees	9	3809	3
093013	15:31	1	r.leisurely	10	3319	5
093013	15:31	1	r.proud	11	2584	9
093013	15:31	1	r.soft	12	2799	9
093013	15:31	1	r.priest	13	4517	4
093013	15:31	1	r.elated	14	2807	8
093013	15:31	1	r.trash	15	4300	5
093013	15:31	1	r.inspired	16	3407	7
093013	15:31	1	r.addicted	17	3573	3
093013	15:31	1	r.silly	18	4597	6
093013	15:31	1	r.dove	19	4562	6
093013	15:31	1	r.useful	20	2683	8
093013	15:31	1	r.christmas	21	3669	9
093013	15:31	1	r.drown	22	3265	2
093013	15:31	1	r.astronaut	23	4748	5
093013	15:31	1	r.sex	24	2101	9
093013	15:31	1	r.violent	25	5767	1
093013	15:31	1	r.hand	26	3463	5
093013	15:31	1	r.putrid	27	5914	2
093013	15:31	1	r.razor	28	3949	5
093013	15:31	1	r.lantern	29	3605	5
093013	15:31	1	r.cemetery	30	4795	5
093013	15:31	1	r.sailboat	31	3162	8
093013	15:31	1	r.festive	32	3625	9
093013	15:31	1	r.abuse	33	2406	1
093013	15:31	1	r.rigid	34	2644	5
093013	15:31	1	r.lonely	35	4016	1
093013	15:31	1	r.couple	36	2189	9
093013	15:31	1	r.vest	37	4132	5
093013	15:31	1	r.smallpox	38	5253	4
093013	15:31	1	r.chin	39	3314	4
093013	15:31	1	r.illness	40	4131	3
093013	15:31	1	r.ketchup	41	3772	6
093013	15:31	1	r.terrified	42	1508	1
093013	15:31	1	r.coarse	43	4877	5
093013	15:31	1	r.twilight	44	5561	4
093013	15:31	1	r.mutilate	45	4353	1
093013	15:31	1	r.spider	46	1465	1
093013	15:31	1	r.rage	47	2028	2
093013	15:31	1	r.merry	48	2944	6
093013	15:31	1	r.mind	49	2504	5
093013	15:31	1	r.news	50	2338	6
093013	15:31	1	r.social	51	4179	7
093013	15:31	1	r.wife	52	2634	9
093013	15:31	1	r.victim	53	2190	1
093013	15:31	1	r.whore	54	3252	2
093013	15:31	1	r.whistle	55	4641	6
093013	15:31	1	r.alcoholic	56	2534	2
093013	15:31	1	r.addict	57	6686	2
093013	15:31	1	r.fight	58	2561	3
093013	15:31	1	r.robber	59	2337	1
093013	15:31	1	r.scorpion	60	2610	1
093013	15:31	1	f.skoke	1	3125	2
093013	15:31	1	f.spoot	2	3022	4
093013	15:31	1	f.gwone	3	4507	3
093013	15:31	1	f.dweeg	4	5806	4
093013	15:31	1	f.dwote	5	5517	5
093013	15:31	1	f.kleech	6	4919	3
093013	15:31	1	f.spave	7	4489	6
093013	15:31	1	f.thoshe	8	5716	3
093013	15:31	1	f.shreese	9	3174	2
093013	15:31	1	f.threeth	10	3414	3
093013	15:31	1	f.gwate	11	6259	5
093013	15:31	1	f.chooge	12	7951	4
093013	15:31	1	f.loche	13	5873	3
093013	15:31	1	f.prome	14	3245	7
093013	15:31	1	f.thooch	15	2746	4
093013	15:31	1	f.skoom	16	3202	5
093013	15:31	1	f.zeege	17	3888	6
093013	15:31	1	f.fleeg	18	3994	5
093013	15:31	1	f.peeth	19	3337	5
093013	15:31	1	f.sheeg	20	3186	6
093013	15:31	1	f.gwoge	21	2664	5
093013	15:31	1	f.yooze	22	2587	2
093013	15:31	1	f.spoog	23	2826	5
093013	15:31	1	f.dwoot	24	3759	4
093013	15:31	1	f.broop	25	2902	7
093013	15:31	1	f.pooth	26	3280	6
093013	15:31	1	f.doche	27	7547	4
093013	15:31	1	f.plool	28	2836	5
093013	15:31	1	f.smave	29	2465	6
093013	15:31	1	f.tage	30	1788	4
093013	15:31	1	f.kague	31	3370	6
093013	15:31	1	f.yave	32	1706	6
093013	15:31	1	f.breeth	33	1692	5
093013	15:31	1	f.snose	34	1422	7
093013	15:31	1	f.grabe	35	3442	4
093013	15:31	1	f.shrooth	36	3991	5
093013	15:31	1	f.drode	37	2278	4
093013	15:31	1	f.gwoof	38	3296	7
093013	15:31	1	f.cheege	39	3578	4
093013	15:31	1	f.gwoot	40	2761	5
093013	15:31	1	f.freeb	41	2600	6
093013	15:31	1	f.floosh	42	5774	8
093013	15:31	1	f.toof	43	2894	6
093013	15:31	1	f.droog	44	3048	4
093013	15:31	1	f.shrogue	45	5700	4
093013	15:31	1	f.yooch	46	3311	4
093013	15:31	1	f.shroosh	47	2313	4
093013	15:31	1	f.fleep	48	4066	3
093013	15:31	1	f.skafe	49	3622	3
093013	15:31	1	f.breeb	50	2499	5
093013	15:31	1	f.gwoke	51	2701	5
093013	15:31	1	f.theege	52	2223	4
093013	15:31	1	f.drobe	53	4164	6
093013	15:31	1	f.shrache	54	4227	2
093013	15:31	1	f.voove	55	4097	5
093013	15:31	1	f.flobe	56	2027	5
093013	15:31	1	f.kreef	57	2351	4
093013	15:31	1	f.shrome	58	3158	6
093013	15:31	1	f.thweeth	59	4142	5
093013	15:31	1	f.zeer	60	2327	7
093013	15:31	1	howtype	1	6429	6
100113	12:57	1	speed	1	3423	59
100113	12:57	1	error	2	2028	98
100113	12:57	1	whichhand	3	4976	right
100113	12:57	1	r.bloody	1	8482	2
100113	12:57	1	r.wonder	2	3102	7
100113	12:57	1	r.hungry	3	4464	5
100113	12:57	1	r.favor	4	4932	6
100113	12:57	1	r.helpless	5	5206	3
100113	12:57	1	r.romantic	6	3348	8
100113	12:57	1	r.roach	7	3100	1
100113	12:57	1	r.blase	8	3663	1
100113	12:57	1	r.windmill	9	3202	5
100113	12:57	1	r.queen	10	2768	8
100113	12:57	1	r.pencil	11	2300	5
100113	12:57	1	r.disaster	12	2743	1
100113	12:57	1	r.tomb	13	9007	4
100113	12:57	1	r.hit	14	4550	3
100113	12:57	1	r.pus	15	2495	1
100113	12:57	1	r.snob	16	2720	2
100113	12:57	1	r.useful	17	4250	7
100113	12:57	1	r.comedy	18	3342	9
100113	12:57	1	r.joke	19	1863	9
100113	12:57	1	r.color	20	1641	9
100113	12:57	1	r.reptile	21	2902	4
100113	12:57	1	r.radiator	22	3944	5
100113	12:57	1	r.scum	23	2352	1
100113	12:57	1	r.stench	24	2832	1
100113	12:57	1	r.assassin	25	2380	3
100113	12:57	1	r.orchestra	26	2435	8
100113	12:57	1	r.pungent	27	2583	7
100113	12:57	1	r.identity	28	2877	5
100113	12:57	1	r.bouquet	29	2057	8
100113	12:57	1	r.cozy	30	1556	8
100113	12:57	1	r.coward	31	3163	4
100113	12:57	1	r.idiot	32	2242	1
100113	12:57	1	r.skull	33	2366	5
100113	12:57	1	r.item	34	1861	5
100113	12:57	1	r.disturb	35	3289	4
100113	12:57	1	r.owl	36	4564	7
100113	12:57	1	r.swimmer	37	2227	7
100113	12:57	1	r.thought	38	2216	5
100113	12:57	1	r.hostage	39	1957	3
100113	12:57	1	r.quality	40	6715	6
100113	12:57	1	r.idea	41	2503	8
100113	12:57	1	r.scapegoat	42	2849	3
100113	12:57	1	r.bus	43	3245	5
100113	12:57	1	r.razor	44	2329	4
100113	12:57	1	r.curtains	45	2722	6
100113	12:57	1	r.ocean	46	2059	9
100113	12:57	1	r.fight	47	2158	3
100113	12:57	1	r.cliff	48	2462	6
100113	12:57	1	r.riot	49	2144	1
100113	12:57	1	r.alley	50	2465	3
100113	12:57	1	r.burn	51	1788	3
100113	12:57	1	r.protected	52	3082	7
100113	12:57	1	r.deformed	53	1765	3
100113	12:57	1	r.mischief	54	5291	6
100113	12:57	1	r.moody	55	2421	3
100113	12:57	1	r.ache	56	2483	2
100113	12:57	1	r.god	57	2270	9
100113	12:57	1	r.urine	58	2161	1
100113	12:57	1	r.mangle	59	1608	1
100113	12:57	1	r.danger	60	5021	7
100113	12:57	1	f.thole	1	3245	2
100113	12:57	1	f.yate	2	3513	4
100113	12:57	1	f.kwome	3	6915	3
100113	12:57	1	f.teege	4	3197	7
100113	12:57	1	f.floob	5	2851	7
100113	12:57	1	f.smave	6	2007	9
100113	12:57	1	f.kleel	7	2173	4
100113	12:57	1	f.twoose	8	3852	6
100113	12:57	1	f.swose	9	2356	9
100113	12:57	1	f.skooth	10	2160	3
100113	12:57	1	f.yote	11	3767	2
100113	12:57	1	f.blole	12	2039	1
100113	12:57	1	f.kleeg	13	4770	4
100113	12:57	1	f.dweese	14	3066	3
100113	12:57	1	f.smeep	15	2149	7
100113	12:57	1	f.tware	16	3045	3
100113	12:57	1	f.dwage	17	2873	6
100113	12:57	1	f.kloob	18	2461	3
100113	12:57	1	f.doof	19	2639	5
100113	12:57	1	f.spope	20	2100	3
100113	12:57	1	f.poshe	21	2957	8
100113	12:57	1	f.tague	22	2270	9
100113	12:57	1	f.drague	23	2289	3
100113	12:57	1	f.shroob	24	2163	4
100113	12:57	1	f.prame	25	3193	1
100113	12:57	1	f.kreeb	26	2120	3
100113	12:57	1	f.flooge	27	2741	7
100113	12:57	1	f.weeg	28	1552	5
100113	12:57	1	f.fofe	29	3240	4
100113	12:57	1	f.smose	30	1853	8
100113	12:57	1	f.dwove	31	1848	3
100113	12:57	1	f.gwoosh	32	3428	9
100113	12:57	1	f.zode	33	1897	9
100113	12:57	1	f.vame	34	1819	8
100113	12:57	1	f.snase	35	3696	7
100113	12:57	1	f.kleesh	36	1794	3
100113	12:57	1	f.wathe	37	1415	3
100113	12:57	1	f.trooch	38	2428	4
100113	12:57	1	f.bleeg	39	1433	3
100113	12:57	1	f.smoog	40	1277	3
100113	12:57	1	f.dwose	41	1703	3
100113	12:57	1	f.groor	42	2545	1
100113	12:57	1	f.wothe	43	1368	1
100113	12:57	1	f.toof	44	2143	5
100113	12:57	1	f.grooch	45	2775	7
100113	12:57	1	f.twooth	46	2054	2
100113	12:57	1	f.thague	47	1977	8
100113	12:57	1	f.thrashe	48	4272	8
100113	12:57	1	f.zothe	49	2484	4
100113	12:57	1	f.plole	50	1471	3
100113	12:57	1	f.klade	51	3425	8
100113	12:57	1	f.thweese	52	1422	1
100113	12:57	1	f.trache	53	3035	3
100113	12:57	1	f.sashe	54	2680	9
100113	12:57	1	f.chade	55	1594	9
100113	12:57	1	f.bleeb	56	2983	2
100113	12:57	1	f.slashe	57	3141	4
100113	12:57	1	f.dweeve	58	1654	2
100113	12:57	1	f.thwoze	59	1050	2
100113	12:57	1	f.flafe	60	2629	6
100113	12:57	1	howtype	1	12240	7
100113	14:58	1	speed	1	3422	42
100113	14:58	1	error	2	2414	100
100113	14:58	1	whichhand	3	10611	Right
100113	14:58	1	f.zoosh	1	10557	7
100113	14:58	1	f.swogue	2	8455	3
100113	14:58	1	f.thook	3	2373	5
100113	14:58	1	f.steech	4	5788	7
100113	14:58	1	f.thweech	5	6347	4
100113	14:58	1	f.broor	6	2916	2
100113	14:58	1	f.foop	7	3030	9
100113	14:58	1	f.yoche	8	4002	4
100113	14:58	1	f.gwothe	9	2505	1
100113	14:58	1	f.shooch	10	4394	5
100113	14:58	1	f.joog	11	4809	6
100113	14:58	1	f.yache	12	3959	5
100113	14:58	1	f.joot	13	3151	7
100113	14:58	1	f.smope	14	2422	8
100113	14:58	1	f.gweeve	15	1812	8
100113	14:58	1	f.prame	16	2553	5
100113	14:58	1	f.thashe	17	3305	5
100113	14:58	1	f.thope	18	17394	6
100113	14:58	1	f.stothe	19	3989	3
100113	14:58	1	f.moof	20	5628	7
100113	14:58	1	f.gwage	21	4826	4
100113	14:58	1	f.throle	22	7815	5
100113	14:58	1	f.dreech	23	5054	6
100113	14:58	1	f.leesh	24	5011	8
100113	14:58	1	f.gloog	25	3792	7
100113	14:58	1	f.steese	26	3287	7
100113	14:58	1	f.smoof	27	4178	6
100113	14:58	1	f.spogue	28	5809	3
100113	14:58	1	f.yoge	29	3407	3
100113	14:58	1	f.klape	30	7469	4
100113	14:58	1	f.gleese	31	4706	7
100113	14:58	1	f.chome	32	3220	6
100113	14:58	1	f.prothe	33	10978	5
100113	14:58	1	f.speeth	34	7835	4
100113	14:58	1	f.grache	35	3809	3
100113	14:58	1	f.thweese	36	10751	4
100113	14:58	1	f.shache	37	5186	2
100113	14:58	1	f.grobe	38	5161	4
100113	14:58	1	f.gweet	39	3681	5
100113	14:58	1	f.zeech	40	2516	1
100113	14:58	1	f.thwoosh	41	5517	6
100113	14:58	1	f.gwaze	42	5807	1
100113	14:58	1	f.swoche	43	6350	5
100113	14:58	1	f.gloge	44	5191	7
100113	14:58	1	f.fabe	45	4590	6
100113	14:58	1	f.throove	46	3101	8
100113	14:58	1	f.zate	47	2327	2
100113	14:58	1	f.thwache	48	10256	4
100113	14:58	1	f.twague	49	8454	3
100113	14:58	1	f.dweep	50	6164	7
100113	14:58	1	f.kwose	51	7684	8
100113	14:58	1	f.gwoot	52	4800	6
100113	14:58	1	f.yogue	53	6447	4
100113	14:58	1	f.thoshe	54	5692	6
100113	14:58	1	f.tweege	55	6175	6
100113	14:58	1	f.wague	56	4423	4
100113	14:58	1	f.shrache	57	7525	5
100113	14:58	1	f.dweer	58	6839	4
100113	14:58	1	f.thoof	59	6724	6
100113	14:58	1	f.gwooth	60	3791	6
100113	14:58	1	r.heaven	1	7285	9
100113	14:58	1	r.tender	2	4249	4
100113	14:58	1	r.crisis	3	8541	4
100113	14:58	1	r.medicine	4	8279	3
100113	14:58	1	r.advantage	5	6188	6
100113	14:58	1	r.hurt	6	7435	5
100113	14:58	1	r.ankle	7	3265	7
100113	14:58	1	r.misery	8	3605	1
100113	14:58	1	r.divorce	9	2459	1
100113	14:58	1	r.spirit	10	2374	8
100113	14:58	1	r.brother	11	3245	9
100113	14:58	1	r.maggot	12	1930	1
100113	14:58	1	r.lake	13	2905	6
100113	14:58	1	r.bride	14	3076	9
100113	14:58	1	r.mystic	15	4110	5
100113	14:58	1	r.blind	16	2016	1
100113	14:58	1	r.headache	17	2709	3
100113	14:58	1	r.fatigued	18	3094	4
100113	14:58	1	r.traitor	19	2152	1
100113	14:58	1	r.robber	20	1416	1
100113	14:58	1	r.chin	21	2757	7
100113	14:58	1	r.angel	22	1341	9
100113	14:58	1	r.pretty	23	2469	9
100113	14:58	1	r.slime	24	3608	5
100113	14:58	1	r.snow	25	2214	7
100113	14:58	1	r.reunion	26	1595	9
100113	14:58	1	r.strong	27	3737	8
100113	14:58	1	r.suffocate	28	4538	1
100113	14:58	1	r.tease	29	2635	8
100113	14:58	1	r.thankful	30	2319	9
100113	14:58	1	r.save	31	3265	9
100113	14:58	1	r.lesbian	32	4116	5
100113	14:58	1	r.skyscraper	33	2750	5
100113	14:58	1	r.scum	34	3054	2
100113	14:58	1	r.slave	35	1682	1
100113	14:58	1	r.beauty	36	1484	9
100113	14:58	1	r.yacht	37	2598	7
100113	14:58	1	r.cord	38	7324	5
100113	14:58	1	r.pancakes	39	1607	9
100113	14:58	1	r.cemetery	40	1868	1
100113	14:58	1	r.torture	41	1207	1
100113	14:58	1	r.tune	42	2421	7
100113	14:58	1	r.kick	43	4010	4
100113	14:58	1	r.scissors	44	2616	8
100113	14:58	1	r.punishment	45	5149	3
100113	14:58	1	r.arrogant	46	3461	4
100113	14:58	1	r.village	47	1825	5
100113	14:58	1	r.elbow	48	2774	7
100113	14:58	1	r.circus	49	1685	8
100113	14:58	1	r.cuisine	50	2311	6
100113	14:58	1	r.insult	51	1952	2
100113	14:58	1	r.tower	52	1832	5
100113	14:58	1	r.garter	53	2828	6
100113	14:58	1	r.killer	54	1633	1
100113	14:58	1	r.lantern	55	2029	5
100113	14:58	1	r.ennui	56	2562	7
100113	14:58	1	r.lamb	57	1369	8
100113	14:58	1	r.hostile	58	2224	2
100113	14:58	1	r.bold	59	2205	8
100113	14:58	1	r.fearful	60	4274	1
100113	14:58	1	howtype	1	12333	5
100213	12:03	1	speed	1	2471	74
100213	12:03	1	error	2	3521	97
100213	12:03	1	whichhand	3	7506	right
100213	12:03	1	r.whistle	1	5713	5
100213	12:03	1	r.context	2	5012	5
100213	12:03	1	r.iron	3	6777	3
100213	12:03	1	r.subdued	4	2834	2
100213	12:03	1	r.hawk	5	2990	3
100213	12:03	1	r.nursery	6	1837	8
100213	12:03	1	r.queen	7	1817	8
100213	12:03	1	r.slush	8	2094	1
100213	12:03	1	r.dollar	9	2168	6
100213	12:03	1	r.scorpion	10	4015	3
100213	12:03	1	r.sheltered	11	3804	2
100213	12:03	1	r.autumn	12	1947	9
100213	12:03	1	r.adorable	13	1178	9
100213	12:03	1	r.progress	14	1040	9
100213	12:03	1	r.insect	15	1701	6
100213	12:03	1	r.champ	16	1790	9
100213	12:03	1	r.anger	17	4468	1
100213	12:03	1	r.inspire	18	1592	9
100213	12:03	1	r.champion	19	1174	9
100213	12:03	1	r.lighthouse	20	917	9
100213	12:03	1	r.blue	21	886	9
100213	12:03	1	r.syphilis	22	4536	1
100213	12:03	1	r.clumsy	23	3601	6
100213	12:03	1	r.butterfly	24	2623	9
100213	12:03	1	r.admired	25	1148	9
100213	12:03	1	r.louse	26	1516	1
100213	12:03	1	r.tree	27	1892	7
100213	12:03	1	r.scalding	28	1862	1
100213	12:03	1	r.sapphire	29	1873	8
100213	12:03	1	r.beggar	30	2204	1
100213	12:03	1	r.sphere	31	1954	6
100213	12:03	1	r.wonder	32	1346	9
100213	12:03	1	r.gold	33	993	9
100213	12:03	1	r.star	34	950	9
100213	12:03	1	r.bathtub	35	1949	9
100213	12:03	1	r.heal	36	1477	9
100213	12:03	1	r.blind	37	3287	3
100213	12:03	1	r.sunlight	38	1410	9
100213	12:03	1	r.silk	39	1255	9
100213	12:03	1	r.time	40	2554	2
100213	12:03	1	r.protected	41	1474	7
100213	12:03	1	r.pet	42	2101	9
100213	12:03	1	r.imagine	43	1047	9
100213	12:03	1	r.masturbate	44	5266	6
100213	12:03	1	r.present	45	2150	9
100213	12:03	1	r.taste	46	1230	9
100213	12:03	1	r.plane	47	2129	4
100213	12:03	1	r.busybody	48	2474	1
100213	12:03	1	r.controlling	49	2749	2
100213	12:03	1	r.war	50	2310	1
100213	12:03	1	r.valentine	51	2639	6
100213	12:03	1	r.rabbit	52	1555	9
100213	12:03	1	r.chair	53	1971	5
100213	12:03	1	r.pollute	54	2706	2
100213	12:03	1	r.thermometer	55	3468	1
100213	12:03	1	r.curtains	56	1431	1
100213	12:03	1	r.mantel	57	2619	6
100213	12:03	1	r.inspired	58	1368	9
100213	12:03	1	r.car	59	2479	4
100213	12:03	1	r.brutal	60	3586	1
100213	12:03	1	f.droze	1	12175	2
100213	12:03	1	f.smole	2	6489	9
100213	12:03	1	f.twoom	3	3268	7
100213	12:03	1	f.thwoge	4	6168	6
100213	12:03	1	f.skoshe	5	2105	9
100213	12:03	1	f.thwade	6	4251	6
100213	12:03	1	f.brobe	7	1575	1
100213	12:03	1	f.greege	8	1605	4
100213	12:03	1	f.dreeze	9	1899	2
100213	12:03	1	f.smoon	10	3132	1
100213	12:03	1	f.shreese	11	4189	2
100213	12:03	1	f.swoze	12	3003	1
100213	12:03	1	f.moob	13	4107	2
100213	12:03	1	f.skooge	14	2381	1
100213	12:03	1	f.smoove	15	4107	6
100213	12:03	1	f.prathe	16	1630	9
100213	12:03	1	f.floshe	17	2433	1
100213	12:03	1	f.tweef	18	4502	1
100213	12:03	1	f.swache	19	2600	5
100213	12:03	1	f.yoove	20	1583	8
100213	12:03	1	f.thweeve	21	1549	2
100213	12:03	1	f.throge	22	3380	6
100213	12:03	1	f.thweep	23	3955	2
100213	12:03	1	f.twoshe	24	1747	1
100213	12:03	1	f.twabe	25	1299	1
100213	12:03	1	f.swobe	26	1941	6
100213	12:03	1	f.kwoove	27	2501	9
100213	12:03	1	f.floove	28	1135	8
100213	12:03	1	f.twage	29	2031	2
100213	12:03	1	f.foog	30	3947	1
100213	12:03	1	f.thwose	31	2339	5
100213	12:03	1	f.sweese	32	3268	8
100213	12:03	1	f.lashe	33	2135	1
100213	12:03	1	f.throgue	34	6904	2
100213	12:03	1	f.thwooze	35	2459	8
100213	12:03	1	f.gwoze	36	2030	1
100213	12:03	1	f.flashe	37	3067	2
100213	12:03	1	f.gweet	38	2486	1
100213	12:03	1	f.floop	39	3264	5
100213	12:03	1	f.chood	40	2732	1
100213	12:03	1	f.snashe	41	2900	3
100213	12:03	1	f.thwode	42	2231	1
100213	12:03	1	f.snade	43	2043	5
100213	12:03	1	f.drathe	44	2070	6
100213	12:03	1	f.twoove	45	3017	8
100213	12:03	1	f.twoge	46	1463	2
100213	12:03	1	f.stase	47	2258	9
100213	12:03	1	f.bleeve	48	1293	9
100213	12:03	1	f.kleeb	49	2335	4
100213	12:03	1	f.loche	50	3631	8
100213	12:03	1	f.pleer	51	2068	1
100213	12:03	1	f.jeeb	52	1767	2
100213	12:03	1	f.snooth	53	2246	8
100213	12:03	1	f.thale	54	2042	9
100213	12:03	1	f.peem	55	4726	6
100213	12:03	1	f.sheeb	56	2520	3
100213	12:03	1	f.cheem	57	1929	8
100213	12:03	1	f.thade	58	2033	8
100213	12:03	1	f.klobe	59	2973	4
100213	12:03	1	f.kreeth	60	1605	6
100213	12:03	1	howtype	1	17625	7
100213	12:26	1	speed	1	3213	34
100213	12:26	1	error	2	2044	85
100213	12:26	1	whichhand	3	9304	right
100213	12:26	1	r.affection	1	9064	7
100213	12:26	1	r.theory	2	3014	5
100213	12:26	1	r.plane	3	5803	5
100213	12:26	1	r.easy	4	2354	9
100213	12:26	1	r.tank	5	2082	1
100213	12:26	1	r.rain	6	1844	6
100213	12:26	1	r.hurt	7	2688	1
100213	12:26	1	r.crisis	8	1171	1
100213	12:26	1	r.bouquet	9	2105	6
100213	12:26	1	r.measles	10	1883	2
100213	12:26	1	r.magical	11	1325	9
100213	12:26	1	r.foam	12	2270	7
100213	12:26	1	r.thankful	13	1217	9
100213	12:26	1	r.diamond	14	1918	5
100213	12:26	1	r.annoy	15	1838	2
100213	12:26	1	r.debt	16	2107	3
100213	12:26	1	r.cuddle	17	1436	8
100213	12:26	1	r.birthday	18	1385	9
100213	12:26	1	r.grime	19	2359	2
100213	12:26	1	r.corridor	20	1918	6
100213	12:26	1	r.limber	21	2151	7
100213	12:26	1	r.cake	22	1623	8
100213	12:26	1	r.resent	23	2444	1
100213	12:26	1	r.hope	24	1096	9
100213	12:26	1	r.fight	25	1649	1
100213	12:26	1	r.scared	26	2924	5
100213	12:26	1	r.hopeful	27	1630	5
100213	12:26	1	r.talent	28	1426	9
100213	12:26	1	r.autumn	29	1359	9
100213	12:26	1	r.mail	30	2934	3
100213	12:26	1	r.favor	31	1278	5
100213	12:26	1	r.caress	32	2976	9
100213	12:26	1	r.despise	33	1663	2
100213	12:26	1	r.anger	34	1258	1
100213	12:26	1	r.refreshment	35	1989	9
100213	12:26	1	r.incentive	36	3340	9
100213	12:26	1	r.humane	37	1292	9
100213	12:26	1	r.optimism	38	1014	9
100213	12:26	1	r.clouds	39	914	9
100213	12:26	1	r.win	40	747	9
100213	12:26	1	r.sky	41	650	9
100213	12:26	1	r.secure	42	862	9
100213	12:26	1	r.gift	43	784	9
100213	12:26	1	r.erotic	44	862	9
100213	12:26	1	r.demon	45	1169	1
100213	12:26	1	r.lighthouse	46	1688	9
100213	12:26	1	r.failure	47	2193	2
100213	12:26	1	r.stiff	48	2072	5
100213	12:26	1	r.army	49	1483	2
100213	12:26	1	r.pervert	50	1372	1
100213	12:26	1	r.illness	51	2820	3
100213	12:26	1	r.inferior	52	2225	1
100213	12:26	1	r.despairing	53	1414	1
100213	12:26	1	r.heart	54	2243	9
100213	12:26	1	r.mutilate	55	1975	1
100213	12:26	1	r.lavish	56	2021	5
100213	12:26	1	r.prestige	57	3683	8
100213	12:26	1	r.listless	58	1653	5
100213	12:26	1	r.mucus	59	1777	5
100213	12:26	1	r.blase	60	4111	5
100213	12:26	1	f.dwood	1	3344	5
100213	12:26	1	f.spave	2	2232	5
100213	12:26	1	f.smoose	3	4580	9
100213	12:26	1	f.shrave	4	2492	6
100213	12:26	1	f.twole	5	2270	6
100213	12:26	1	f.kwove	6	2689	7
100213	12:26	1	f.fleeg	7	2740	4
100213	12:26	1	f.sweel	8	1868	9
100213	12:26	1	f.prothe	9	3175	2
100213	12:26	1	f.poshe	10	1630	1
100213	12:26	1	f.prool	11	1962	1
100213	12:26	1	f.yeech	12	2273	7
100213	12:26	1	f.floosh	13	1668	9
100213	12:26	1	f.feech	14	3623	6
100213	12:26	1	f.frobe	15	2061	4
100213	12:26	1	f.dreet	16	2336	5
100213	12:26	1	f.flofe	17	1944	7
100213	12:26	1	f.noof	18	2416	8
100213	12:26	1	f.thave	19	1733	2
100213	12:26	1	f.zoor	20	3133	3
100213	12:26	1	f.throom	21	3493	5
100213	12:26	1	f.leel	22	3352	5
100213	12:26	1	f.swave	23	1776	9
100213	12:26	1	f.meef	24	1414	9
100213	12:26	1	f.twooth	25	2691	2
100213	12:26	1	f.thooth	26	3325	2
100213	12:26	1	f.thweege	27	3519	5
100213	12:26	1	f.feef	28	4040	7
100213	12:26	1	f.bleel	29	3541	6
100213	12:26	1	f.gwofe	30	1822	3
100213	12:26	1	f.sweech	31	1667	4
100213	12:26	1	f.steeb	32	2038	6
100213	12:26	1	f.vooge	33	4186	4
100213	12:26	1	f.tweeb	34	3049	1
100213	12:26	1	f.gathe	35	2493	6
100213	12:26	1	f.twathe	36	2767	9
100213	12:26	1	f.kweeve	37	3478	5
100213	12:26	1	f.slade	38	4122	8
100213	12:26	1	f.thweet	39	2866	2
100213	12:26	1	f.sneeb	40	1622	2
100213	12:26	1	f.gwoze	41	4412	7
100213	12:26	1	f.swole	42	2273	2
100213	12:26	1	f.twoor	43	5228	6
100213	12:26	1	f.speeb	44	2338	5
100213	12:26	1	f.gwashe	45	2649	8
100213	12:26	1	f.drofe	46	3798	8
100213	12:26	1	f.vape	47	2780	1
100213	12:26	1	f.dothe	48	2859	5
100213	12:26	1	f.threep	49	2102	6
100213	12:26	1	f.sleech	50	3672	2
100213	12:26	1	f.threef	51	4795	6
100213	12:26	1	f.dreech	52	2802	3
100213	12:26	1	f.kwabe	53	2936	7
100213	12:26	1	f.dweeze	54	2304	2
100213	12:26	1	f.dogue	55	2242	8
100213	12:26	1	f.plole	56	1989	9
100213	12:26	1	f.dween	57	1692	4
100213	12:26	1	f.slobe	58	1086	5
100213	12:26	1	f.shrache	59	3520	8
100213	12:26	1	f.shroor	60	3865	7
100213	12:26	1	howtype	1	8866	2
100213	13:21	1	speed	1	3905	58
100213	13:21	1	error	2	4050	96
100213	13:21	1	whichhand	3	6831	right
100213	13:21	1	f.zeeth	1	12859	3
100213	13:21	1	f.neef	2	7099	5
100213	13:21	1	f.kroof	3	3254	6
100213	13:21	1	f.thwache	4	2826	3
100213	13:21	1	f.thweef	5	5071	6
100213	13:21	1	f.trafe	6	2547	5
100213	13:21	1	f.dwoove	7	2803	7
100213	13:21	1	f.yooge	8	5721	5
100213	13:21	1	f.foche	9	2507	4
100213	13:21	1	f.cheeth	10	1949	4
100213	13:21	1	f.dweesh	11	2053	7
100213	13:21	1	f.thwave	12	1624	7
100213	13:21	1	f.smofe	13	3381	8
100213	13:21	1	f.nage	14	3340	6
100213	13:21	1	f.toof	15	1485	6
100213	13:21	1	f.smoze	16	1767	8
100213	13:21	1	f.klade	17	2454	7
100213	13:21	1	f.smashe	18	3562	3
100213	13:21	1	f.zoof	19	2001	5
100213	13:21	1	f.prache	20	2807	5
100213	13:21	1	f.dwate	21	1741	4
100213	13:21	1	f.snache	22	1429	3
100213	13:21	1	f.gwame	23	3521	3
100213	13:21	1	f.freesh	24	1715	8
100213	13:21	1	f.treef	25	1596	8
100213	13:21	1	f.teeve	26	1697	8
100213	13:21	1	f.thook	27	1955	8
100213	13:21	1	f.spoom	28	1379	8
100213	13:21	1	f.dwooch	29	3304	7
100213	13:21	1	f.smeeb	30	6531	8
100213	13:21	1	f.sloshe	31	6068	7
100213	13:21	1	f.breesh	32	1657	8
100213	13:21	1	f.pleep	33	1516	8
100213	13:21	1	f.voove	34	2853	7
100213	13:21	1	f.theed	35	1537	8
100213	13:21	1	f.mothe	36	2777	6
100213	13:21	1	f.troof	37	1256	8
100213	13:21	1	f.yoosh	38	1467	6
100213	13:21	1	f.zoor	39	2342	4
100213	13:21	1	f.flathe	40	2846	5
100213	13:21	1	f.shroon	41	2833	2
100213	13:21	1	f.prole	42	3335	3
100213	13:21	1	f.twabe	43	1183	4
100213	13:21	1	f.speesh	44	2957	6
100213	13:21	1	f.yove	45	2245	8
100213	13:21	1	f.skoof	46	2161	8
100213	13:21	1	f.weeth	47	3520	6
100213	13:21	1	f.choob	48	5602	5
100213	13:21	1	f.froog	49	2913	4
100213	13:21	1	f.yafe	50	4194	4
100213	13:21	1	f.greege	51	2392	3
100213	13:21	1	f.jooth	52	2942	3
100213	13:21	1	f.gwoot	53	7598	3
100213	13:21	1	f.twoove	54	3693	4
100213	13:21	1	f.klague	55	1856	3
100213	13:21	1	f.plothe	56	2123	2
100213	13:21	1	f.dweek	57	2389	7
100213	13:21	1	f.gleef	58	1523	6
100213	13:21	1	f.krooch	59	1716	3
100213	13:21	1	f.broor	60	1661	3
100213	13:21	1	r.windmill	1	3354	9
100213	13:21	1	r.mail	2	2083	9
100213	13:21	1	r.bright	3	1045	9
100213	13:21	1	r.trunk	4	2336	3
100213	13:21	1	r.awed	5	3793	9
100213	13:21	1	r.woman	6	1503	9
100213	13:21	1	r.dawn	7	2536	8
100213	13:21	1	r.pinch	8	1681	1
100213	13:21	1	r.family	9	1587	9
100213	13:21	1	r.nun	10	3585	9
100213	13:21	1	r.pollute	11	2000	1
100213	13:21	1	r.history	12	3118	5
100213	13:21	1	r.radio	13	1463	9
100213	13:21	1	r.sheltered	14	3322	5
100213	13:21	1	r.bastard	15	1700	1
100213	13:21	1	r.scorn	16	1093	1
100213	13:21	1	r.hooker	17	927	1
100213	13:21	1	r.stupid	18	926	1
100213	13:21	1	r.rain	19	1591	5
100213	13:21	1	r.hammer	20	1397	1
100213	13:21	1	r.depression	21	3386	1
100213	13:21	1	r.lesbian	22	2089	1
100213	13:21	1	r.gender	23	1651	5
100213	13:21	1	r.answer	24	1543	5
100213	13:21	1	r.burn	25	1207	1
100213	13:21	1	r.execution	26	1412	1
100213	13:21	1	r.method	27	5737	5
100213	13:21	1	r.disgusted	28	1290	1
100213	13:21	1	r.dummy	29	1196	1
100213	13:21	1	r.helpless	30	2050	2
100213	13:21	1	r.taxi	31	2718	3
100213	13:21	1	r.quick	32	2719	5
100213	13:21	1	r.lamp	33	2872	6
100213	13:21	1	r.moment	34	1939	8
100213	13:21	1	r.jelly	35	1980	3
100213	13:21	1	r.bowl	36	2434	5
100213	13:21	1	r.lawsuit	37	1535	1
100213	13:21	1	r.optimism	38	1871	5
100213	13:21	1	r.sexy	39	2746	8
100213	13:21	1	r.elated	40	2098	6
100213	13:21	1	r.bored	41	1747	1
100213	13:21	1	r.bees	42	1427	1
100213	13:21	1	r.shark	43	1135	1
100213	13:21	1	r.cat	44	2967	4
100213	13:21	1	r.natural	45	6102	2
100213	13:21	1	r.infection	46	1753	1
100213	13:21	1	r.flabby	47	1833	1
100213	13:21	1	r.iron	48	5285	2
100213	13:21	1	r.assault	49	1217	1
100213	13:21	1	r.lucky	50	2165	9
100213	13:21	1	r.cabinet	51	2284	4
100213	13:21	1	r.chaos	52	1174	1
100213	13:21	1	r.kindness	53	1454	9
100213	13:21	1	r.valentine	54	1073	9
100213	13:21	1	r.butterfly	55	1092	9
100213	13:21	1	r.avalanche	56	1286	1
100213	13:21	1	r.jail	57	1416	1
100213	13:21	1	r.doctor	58	2501	8
100213	13:21	1	r.acceptance	59	2135	9
100213	13:21	1	r.blister	60	1295	1
100213	13:21	1	howtype	1	14607	6
100213	13:56	1	speed	1	4583	38
100213	13:56	1	error	2	2838	100
100213	13:56	1	whichhand	3	8859	Right
100213	13:56	1	r.watch	1	15186	4
100213	13:56	1	r.listless	2	6797	3
100213	13:56	1	r.answer	3	3268	6
100213	13:56	1	r.fatigued	4	4559	2
100213	13:56	1	r.tease	5	4263	6
100213	13:56	1	r.joyful	6	2211	7
100213	13:56	1	r.face	7	2304	5
100213	13:56	1	r.chair	8	1322	5
100213	13:56	1	r.bouquet	9	2658	8
100213	13:56	1	r.scapegoat	10	3807	2
100213	13:56	1	r.sleep	11	2053	9
100213	13:56	1	r.virtue	12	3064	6
100213	13:56	1	r.medicine	13	4772	5
100213	13:56	1	r.friend	14	4716	7
100213	13:56	1	r.child	15	2022	8
100213	13:56	1	r.queen	16	2467	7
100213	13:56	1	r.fear	17	3022	5
100213	13:56	1	r.wonder	18	2707	5
100213	13:56	1	r.pie	19	2941	6
100213	13:56	1	r.humble	20	5878	7
100213	13:56	1	r.solemn	21	5945	2
100213	13:56	1	r.respectful	22	4322	7
100213	13:56	1	r.sweetheart	23	1804	9
100213	13:56	1	r.square	24	1594	5
100213	13:56	1	r.spider	25	2871	4
100213	13:56	1	r.stove	26	2250	5
100213	13:56	1	r.ugly	27	3526	2
100213	13:56	1	r.coffin	28	2735	2
100213	13:56	1	r.mutilate	29	3543	1
100213	13:56	1	r.curtains	30	1608	5
100213	13:56	1	r.warmth	31	1773	7
100213	13:56	1	r.yacht	32	2100	6
100213	13:56	1	r.naked	33	2030	6
100213	13:56	1	r.beach	34	1658	9
100213	13:56	1	r.quarrel	35	1950	2
100213	13:56	1	r.termite	36	2101	3
100213	13:56	1	r.item	37	1799	5
100213	13:56	1	r.pancakes	38	1565	8
100213	13:56	1	r.rape	39	1884	1
100213	13:56	1	r.sin	40	1022	1
100213	13:56	1	r.honey	41	3051	7
100213	13:56	1	r.discomfort	42	1511	2
100213	13:56	1	r.plant	43	1400	5
100213	13:56	1	r.coast	44	3149	7
100213	13:56	1	r.mystic	45	1469	8
100213	13:56	1	r.riot	46	2144	1
100213	13:56	1	r.hostile	47	1568	1
100213	13:56	1	r.kerosene	48	1630	1
100213	13:56	1	r.peace	49	1323	8
100213	13:56	1	r.foul	50	2027	5
100213	13:56	1	r.fat	51	2496	2
100213	13:56	1	r.applause	52	2938	7
100213	13:56	1	r.terrific	53	2034	9
100213	13:56	1	r.sad	54	1703	2
100213	13:56	1	r.penthouse	55	4600	5
100213	13:56	1	r.twilight	56	1863	6
100213	13:56	1	r.dog	57	1770	8
100213	13:56	1	r.context	58	2201	5
100213	13:56	1	r.avenue	59	1599	4
100213	13:56	1	r.spring	60	1964	9
100213	13:56	1	f.dache	1	5015	2
100213	13:56	1	f.fleech	2	2877	4
100213	13:56	1	f.brobe	3	2424	5
100213	13:56	1	f.ploor	4	2477	2
100213	13:56	1	f.vood	5	3008	6
100213	13:56	1	f.skave	6	5014	5
100213	13:56	1	f.ploove	7	4060	3
100213	13:56	1	f.drore	8	6367	5
100213	13:56	1	f.speege	9	6064	6
100213	13:56	1	f.thooge	10	2692	5
100213	13:56	1	f.snathe	11	4711	2
100213	13:56	1	f.sneech	12	4289	4
100213	13:56	1	f.nothe	13	3252	2
100213	13:56	1	f.blogue	14	6064	2
100213	13:56	1	f.nogue	15	5012	3
100213	13:56	1	f.thwave	16	4338	7
100213	13:56	1	f.smofe	17	2611	6
100213	13:56	1	f.gwoof	18	3448	6
100213	13:56	1	f.yeen	19	3573	6
100213	13:56	1	f.snoose	20	4684	7
100213	13:56	1	f.thage	21	5383	5
100213	13:56	1	f.stooch	22	3943	2
100213	13:56	1	f.gleef	23	2719	8
100213	13:56	1	f.twoob	24	5992	2
100213	13:56	1	f.bleel	25	4167	5
100213	13:56	1	f.grague	26	3911	4
100213	13:56	1	f.throle	27	2585	6
100213	13:56	1	f.sleer	28	1551	6
100213	13:56	1	f.thrage	29	1823	5
100213	13:56	1	f.trague	30	7244	5
100213	13:56	1	f.theeb	31	3081	2
100213	13:56	1	f.zoor	32	4812	1
100213	13:56	1	f.thafe	33	2762	2
100213	13:56	1	f.trooch	34	1393	2
100213	13:56	1	f.sweeve	35	2734	6
100213	13:56	1	f.shroof	36	2431	5
100213	13:56	1	f.froog	37	4651	7
100213	13:56	1	f.toshe	38	3528	7
100213	13:56	1	f.dreege	39	4241	5
100213	13:56	1	f.smoop	40	3086	2
100213	13:56	1	f.drabe	41	3433	3
100213	13:56	1	f.twooth	42	3741	4
100213	13:56	1	f.proot	43	5798	5
100213	13:56	1	f.mathe	44	2645	8
100213	13:56	1	f.gwage	45	8241	2
100213	13:56	1	f.swoom	46	2935	8
100213	13:56	1	f.kweeve	47	4879	1
100213	13:56	1	f.glogue	48	1860	1
100213	13:56	1	f.keeg	49	1142	5
100213	13:56	1	f.sloche	50	3174	4
100213	13:56	1	f.neesh	51	2469	4
100213	13:56	1	f.treech	52	4624	6
100213	13:56	1	f.shose	53	3126	7
100213	13:56	1	f.slare	54	1983	5
100213	13:56	1	f.gwooze	55	2693	1
100213	13:56	1	f.klashe	56	1807	5
100213	13:56	1	f.roshe	57	1669	4
100213	13:56	1	f.threege	58	4896	6
100213	13:56	1	f.skake	59	2834	4
100213	13:56	1	f.shrone	60	4558	5
100213	13:56	1	howtype	1	15805	6
100213	14:28	5	speed	1	2675	46
100213	14:28	5	error	2	2797	97
100213	14:28	5	whichhand	3	8500	Right
100213	14:28	5	f.plare	1	5745	3
100213	14:28	5	f.shrache	2	2250	2
100213	14:28	5	f.smope	3	2598	4
100213	14:28	5	f.klade	4	2700	5
100213	14:28	5	f.throme	5	3758	5
100213	14:28	5	f.shrose	6	2062	3
100213	14:28	5	f.skooge	7	4105	6
100213	14:28	5	f.preech	8	3668	9
100213	14:28	5	f.sloog	9	3175	4
100213	14:28	5	f.swove	10	3174	6
100213	14:28	5	f.sname	11	2942	5
100213	14:28	5	f.toge	12	3383	3
100213	14:28	5	f.flooge	13	2197	5
100213	14:28	5	f.skose	14	2883	4
100213	14:28	5	f.spoog	15	3014	5
100213	14:28	5	f.zeek	16	3203	7
100213	14:28	5	f.prale	17	3153	6
100213	14:28	5	f.kwood	18	10561	5
100213	14:28	5	f.throge	19	3851	6
100213	14:28	5	f.chool	20	2167	9
100213	14:28	5	f.doof	21	2494	2
100213	14:28	5	f.sneen	22	4351	5
100213	14:28	5	f.twafe	23	2889	4
100213	14:28	5	f.vashe	24	7467	6
100213	14:28	5	f.wogue	25	2848	4
100213	14:28	5	f.nathe	26	6876	5
100213	14:28	5	f.gleef	27	4528	4
100213	14:28	5	f.thoon	28	3305	3
100213	14:28	5	f.glole	29	2611	8
100213	14:28	5	f.bashe	30	5632	5
100213	14:28	5	f.shreem	31	2142	3
100213	14:28	5	f.stague	32	3078	6
100213	14:28	5	f.jeeg	33	5097	4
100213	14:28	5	f.gwoon	34	4500	6
100213	14:28	5	f.steesh	35	4190	3
100213	14:28	5	f.gwaze	36	4829	5
100213	14:28	5	f.snome	37	4611	5
100213	14:28	5	f.vape	38	2449	4
100213	14:28	5	f.yeeze	39	7500	5
100213	14:28	5	f.kreech	40	3248	2
100213	14:28	5	f.thade	41	2756	3
100213	14:28	5	f.grogue	42	3124	3
100213	14:28	5	f.snoche	43	6749	3
100213	14:28	5	f.voove	44	1630	5
100213	14:28	5	f.theen	45	2555	7
100213	14:28	5	f.groosh	46	1907	5
100213	14:28	5	f.prage	47	2436	6
100213	14:28	5	f.troche	48	1600	4
100213	14:28	5	f.smape	49	2918	5
100213	14:28	5	f.froshe	50	2239	6
100213	14:28	5	f.neeg	51	2228	4
100213	14:28	5	f.troge	52	4408	5
100213	14:28	5	f.gleesh	53	1446	4
100213	14:28	5	f.thoove	54	5418	6
100213	14:28	5	f.skoose	55	2816	2
100213	14:28	5	f.zeege	56	3270	3
100213	14:28	5	f.leel	57	2641	7
100213	14:28	5	f.yoove	58	3294	6
100213	14:28	5	f.kwoob	59	5744	4
100213	14:28	5	f.blabe	60	2497	3
100213	14:28	5	r.germs	1	5648	2
100213	14:28	5	r.sentiment	2	2781	8
100213	14:28	5	r.gold	3	1404	9
100213	14:28	5	r.vest	4	2857	6
100213	14:28	5	r.wonder	5	4109	5
100213	14:28	5	r.busybody	6	2583	3
100213	14:28	5	r.fever	7	1934	1
100213	14:28	5	r.robber	8	1318	1
100213	14:28	5	r.prairie	9	4415	6
100213	14:28	5	r.star	10	2004	5
100213	14:28	5	r.murderer	11	1442	1
100213	14:28	5	r.space	12	3262	6
100213	14:28	5	r.home	13	1594	9
100213	14:28	5	r.enjoyment	14	1431	9
100213	14:28	5	r.decompose	15	2387	1
100213	14:28	5	r.disgusted	16	1634	2
100213	14:28	5	r.invest	17	2318	7
100213	14:28	5	r.nervous	18	2015	2
100213	14:28	5	r.pasta	19	1804	9
100213	14:28	5	r.alert	20	2626	1
100213	14:28	5	r.immoral	21	1262	1
100213	14:28	5	r.square	22	2785	5
100213	14:28	5	r.circus	23	2048	7
100213	14:28	5	r.talent	24	1868	7
100213	14:28	5	r.patriot	25	1670	9
100213	14:28	5	r.ecstasy	26	3657	1
100213	14:28	5	r.item	27	3341	5
100213	14:28	5	r.idea	28	1534	6
100213	14:28	5	r.death	29	1495	1
100213	14:28	5	r.sour	30	1144	1
100213	14:28	5	r.devoted	31	2303	8
100213	14:28	5	r.window	32	1505	5
100213	14:28	5	r.achievement	33	1707	9
100213	14:28	5	r.beggar	34	1516	2
100213	14:28	5	r.injury	35	1589	2
100213	14:28	5	r.hooker	36	1787	2
100213	14:28	5	r.lost	37	1010	1
100213	14:28	5	r.glory	38	2030	9
100213	14:28	5	r.face	39	1586	5
100213	14:28	5	r.blubber	40	2769	4
100213	14:28	5	r.acceptance	41	2512	8
100213	14:28	5	r.beverage	42	3385	4
100213	14:28	5	r.poetry	43	1872	6
100213	14:28	5	r.wine	44	1939	5
100213	14:28	5	r.kiss	45	1771	9
100213	14:28	5	r.candy	46	1650	9
100213	14:28	5	r.deceit	47	2414	1
100213	14:28	5	r.overcast	48	2051	4
100213	14:28	5	r.progress	49	2135	8
100213	14:28	5	r.cell	50	1743	5
100213	14:28	5	r.fear	51	1895	1
100213	14:28	5	r.syphilis	52	1712	1
100213	14:28	5	r.weary	53	2785	3
100213	14:28	5	r.fatigued	54	2088	4
100213	14:28	5	r.reverent	55	3906	5
100213	14:28	5	r.aloof	56	1853	5
100213	14:28	5	r.employment	57	2144	7
100213	14:28	5	r.fish	58	1376	7
100213	14:28	5	r.cut	59	2582	2
100213	14:28	5	r.soothe	60	2157	8
100213	14:28	5	howtype	1	14275	5
100213	15:31	1	speed	1	3559	52
100213	15:31	1	error	2	2109	82
100213	15:31	1	whichhand	3	12015	right
100213	15:31	1	f.glale	1	10393	6
100213	15:31	1	f.throde	2	3201	3
100213	15:31	1	f.prooge	3	5479	4
100213	15:31	1	f.flashe	4	4611	5
100213	15:31	1	f.froob	5	3745	4
100213	15:31	1	f.snofe	6	2921	6
100213	15:31	1	f.twoche	7	2850	6
100213	15:31	1	f.twoof	8	2478	7
100213	15:31	1	f.plashe	9	4065	7
100213	15:31	1	f.yome	10	2412	8
100213	15:31	1	f.theek	11	2465	6
100213	15:31	1	f.frague	12	7837	6
100213	15:31	1	f.treeg	13	2467	5
100213	15:31	1	f.dwoor	14	1302	4
100213	15:31	1	f.bave	15	4016	3
100213	15:31	1	f.nache	16	1701	5
100213	15:31	1	f.kloog	17	2423	5
100213	15:31	1	f.skage	18	1644	4
100213	15:31	1	f.freech	19	2807	6
100213	15:31	1	f.slode	20	5173	5
100213	15:31	1	f.chague	21	2238	6
100213	15:31	1	f.thweeve	22	3114	4
100213	15:31	1	f.twoove	23	2219	6
100213	15:31	1	f.chode	24	4608	7
100213	15:31	1	f.zave	25	2158	7
100213	15:31	1	f.peeb	26	2374	4
100213	15:31	1	f.theeve	27	4453	4
100213	15:31	1	f.yeet	28	2242	5
100213	15:31	1	f.gwoot	29	4710	6
100213	15:31	1	f.choge	30	3808	6
100213	15:31	1	f.shoge	31	1598	7
100213	15:31	1	f.blathe	32	4900	7
100213	15:31	1	f.glache	33	4254	7
100213	15:31	1	f.dwoot	34	2283	6
100213	15:31	1	f.vake	35	1957	5
100213	15:31	1	f.kweech	36	4525	3
100213	15:31	1	f.sneeb	37	2102	2
100213	15:31	1	f.kweese	38	1752	3
100213	15:31	1	f.vape	39	3935	4
100213	15:31	1	f.yape	40	3192	7
100213	15:31	1	f.skabe	41	2854	4
100213	15:31	1	f.ploop	42	2506	2
100213	15:31	1	f.dafe	43	3404	5
100213	15:31	1	f.tague	44	2954	4
100213	15:31	1	f.dwode	45	2554	6
100213	15:31	1	f.shrache	46	2554	6
100213	15:31	1	f.thweef	47	1802	4
100213	15:31	1	f.smone	48	2040	4
100213	15:31	1	f.steef	49	4260	4
100213	15:31	1	f.drose	50	2896	3
100213	15:31	1	f.throor	51	4474	7
100213	15:31	1	f.gweet	52	1630	7
100213	15:31	1	f.sloose	53	1706	7
100213	15:31	1	f.dwane	54	1411	6
100213	15:31	1	f.shrale	55	2624	5
100213	15:31	1	f.droge	56	2685	6
100213	15:31	1	f.klood	57	2088	7
100213	15:31	1	f.bleeve	58	1882	8
100213	15:31	1	f.thrope	59	2077	6
100213	15:31	1	f.dwoshe	60	2119	4
100213	15:31	1	r.alive	1	2857	9
100213	15:31	1	r.star	2	2140	8
100213	15:31	1	r.depressed	3	1725	2
100213	15:31	1	r.carcass	4	2710	2
100213	15:31	1	r.kind	5	1807	8
100213	15:31	1	r.gloom	6	1677	2
100213	15:31	1	r.maniac	7	2103	8
100213	15:31	1	r.dove	8	2065	6
100213	15:31	1	r.insect	9	3100	6
100213	15:31	1	r.wagon	10	2574	5
100213	15:31	1	r.party	11	2261	4
100213	15:31	1	r.laughter	12	1808	8
100213	15:31	1	r.nuisance	13	2118	2
100213	15:31	1	r.fantasy	14	2583	6
100213	15:31	1	r.loved	15	1710	8
100213	15:31	1	r.salute	16	1983	4
100213	15:31	1	r.habit	17	2149	2
100213	15:31	1	r.blister	18	1869	1
100213	15:31	1	r.vehicle	19	2031	8
100213	15:31	1	r.alimony	20	2524	2
100213	15:31	1	r.germs	21	2429	5
100213	15:31	1	r.bandage	22	3569	6
100213	15:31	1	r.mobility	23	3465	7
100213	15:31	1	r.love	24	1532	8
100213	15:31	1	r.poverty	25	2565	4
100213	15:31	1	r.hat	26	3020	5
100213	15:31	1	r.manure	27	2233	4
100213	15:31	1	r.cow	28	2302	5
100213	15:31	1	r.bath	29	8471	6
100213	15:31	1	r.tragedy	30	2445	5
100213	15:31	1	r.shark	31	2152	6
100213	15:31	1	r.incentive	32	2400	6
100213	15:31	1	r.yellow	33	2110	7
100213	15:31	1	r.victory	34	2951	8
100213	15:31	1	r.hostile	35	1991	4
100213	15:31	1	r.radio	36	1797	8
100213	15:31	1	r.broken	37	2027	3
100213	15:31	1	r.tender	38	1919	6
100213	15:31	1	r.lost	39	2768	4
100213	15:31	1	r.whistle	40	1920	6
100213	15:31	1	r.terrific	41	1736	7
100213	15:31	1	r.bus	42	3345	4
100213	15:31	1	r.flabby	43	2097	2
100213	15:31	1	r.cliff	44	1859	8
100213	15:31	1	r.tumor	45	2238	2
100213	15:31	1	r.space	46	2003	8
100213	15:31	1	r.delayed	47	1920	3
100213	15:31	1	r.garden	48	2137	6
100213	15:31	1	r.brutal	49	2210	3
100213	15:31	1	r.child	50	2095	6
100213	15:31	1	r.millionaire	51	2600	6
100213	15:31	1	r.coast	52	1798	8
100213	15:31	1	r.kiss	53	1316	8
100213	15:31	1	r.sheltered	54	2093	7
100213	15:31	1	r.trauma	55	3006	4
100213	15:31	1	r.insolent	56	1485	3
100213	15:31	1	r.skijump	57	1894	9
100213	15:31	1	r.white	58	1952	5
100213	15:31	1	r.car	59	1472	9
100213	15:31	1	r.revolt	60	2099	9
100213	15:31	1	howtype	1	10299	6
100213	16:00	1	speed	1	2998	58
100213	16:00	1	error	2	2614	94
100213	16:00	1	whichhand	3	7381	Right
100213	16:00	1	f.flathe	1	21002	4
100213	16:00	1	f.shreeg	2	2046	5
100213	16:00	1	f.dwove	3	1362	5
100213	16:00	1	f.gwothe	4	6328	2
100213	16:00	1	f.thwole	5	4066	3
100213	16:00	1	f.blooge	6	2174	1
100213	16:00	1	f.thwogue	7	2757	4
100213	16:00	1	f.doog	8	3789	3
100213	16:00	1	f.gwoose	9	2956	6
100213	16:00	1	f.twoom	10	4332	6
100213	16:00	1	f.thathe	11	2461	7
100213	16:00	1	f.noge	12	8440	3
100213	16:00	1	f.swogue	13	7014	8
100213	16:00	1	f.shrooge	14	2245	7
100213	16:00	1	f.smeel	15	3193	5
100213	16:00	1	f.skoke	16	5255	4
100213	16:00	1	f.blothe	17	4740	6
100213	16:00	1	f.shrobe	18	5925	6
100213	16:00	1	f.throoge	19	4639	5
100213	16:00	1	f.gwoze	20	4484	2
100213	16:00	1	f.shraze	21	2495	8
100213	16:00	1	f.shrathe	22	2417	9
100213	16:00	1	f.freege	23	5606	6
100213	16:00	1	f.dwathe	24	5005	6
100213	16:00	1	f.preet	25	6755	3
100213	16:00	1	f.twooth	26	2748	7
100213	16:00	1	f.koog	27	5836	6
100213	16:00	1	f.throche	28	2194	4
100213	16:00	1	f.sleesh	29	3256	3
100213	16:00	1	f.throoch	30	2364	2
100213	16:00	1	f.threeg	31	2955	5
100213	16:00	1	f.droob	32	1603	3
100213	16:00	1	f.spate	33	2673	2
100213	16:00	1	f.blabe	34	2132	7
100213	16:00	1	f.bloob	35	1780	2
100213	16:00	1	f.kweed	36	2707	1
100213	16:00	1	f.chole	37	7228	4
100213	16:00	1	f.sneeb	38	1618	4
100213	16:00	1	f.thwoog	39	4303	4
100213	16:00	1	f.smoshe	40	1873	6
100213	16:00	1	f.shreer	41	8693	6
100213	16:00	1	f.sneech	42	2225	1
100213	16:00	1	f.pame	43	4094	7
100213	16:00	1	f.frache	44	2704	6
100213	16:00	1	f.shreeze	45	1690	4
100213	16:00	1	f.theed	46	5260	7
100213	16:00	1	f.zoof	47	4032	6
100213	16:00	1	f.shoog	48	3677	3
100213	16:00	1	f.sneem	49	1512	4
100213	16:00	1	f.sneeth	50	4593	4
100213	16:00	1	f.bleeve	51	3703	7
100213	16:00	1	f.wooth	52	2722	7
100213	16:00	1	f.flooch	53	1467	2
100213	16:00	1	f.gweeze	54	1622	2
100213	16:00	1	f.dwoor	55	2099	8
100213	16:00	1	f.toshe	56	1557	8
100213	16:00	1	f.kreech	57	2564	3
100213	16:00	1	f.swoge	58	1723	2
100213	16:00	1	f.neeg	59	2604	1
100213	16:00	1	f.poshe	60	2594	7
100213	16:00	1	r.friendly	1	6245	9
100213	16:00	1	r.bored	2	5066	3
100213	16:00	1	r.knowledge	3	2478	7
100213	16:00	1	r.merry	4	2065	9
100213	16:00	1	r.tragedy	5	1596	1
100213	16:00	1	r.illness	6	2082	2
100213	16:00	1	r.rescue	7	3212	7
100213	16:00	1	r.spirit	8	4529	5
100213	16:00	1	r.industry	9	4195	3
100213	16:00	1	r.highway	10	5833	6
100213	16:00	1	r.wedding	11	4622	6
100213	16:00	1	r.dream	12	2172	7
100213	16:00	1	r.ocean	13	1643	8
100213	16:00	1	r.swimmer	14	2791	6
100213	16:00	1	r.invader	15	4486	3
100213	16:00	1	r.dagger	16	3569	3
100213	16:00	1	r.surgery	17	1472	2
100213	16:00	1	r.bless	18	3555	6
100213	16:00	1	r.letter	19	2003	5
100213	16:00	1	r.taxi	20	2713	3
100213	16:00	1	r.nipple	21	2746	2
100213	16:00	1	r.jelly	22	3378	6
100213	16:00	1	r.palace	23	3473	7
100213	16:00	1	r.engaged	24	4084	8
100213	16:00	1	r.pizza	25	5999	4
100213	16:00	1	r.space	26	5502	6
100213	16:00	1	r.nourish	27	2865	8
100213	16:00	1	r.revolt	28	1812	4
100213	16:00	1	r.loser	29	3185	2
100213	16:00	1	r.romantic	30	1744	7
100213	16:00	1	r.shotgun	31	1640	1
100213	16:00	1	r.suspicious	32	1724	4
100213	16:00	1	r.violin	33	2845	4
100213	16:00	1	r.guillotine	34	1945	2
100213	16:00	1	r.lawn	35	4768	6
100213	16:00	1	r.luxury	36	1777	8
100213	16:00	1	r.narcotic	37	2087	1
100213	16:00	1	r.spouse	38	6353	4
100213	16:00	1	r.dawn	39	4074	8
100213	16:00	1	r.tennis	40	8886	6
100213	16:00	1	r.trauma	41	1474	1
100213	16:00	1	r.resent	42	1197	1
100213	16:00	1	r.ambulance	43	2859	4
100213	16:00	1	r.putrid	44	1407	1
100213	16:00	1	r.sun	45	4204	7
100213	16:00	1	r.wealthy	46	2258	6
100213	16:00	1	r.reptile	47	1534	4
100213	16:00	1	r.champ	48	2734	6
100213	16:00	1	r.millionaire	49	2599	7
100213	16:00	1	r.bathroom	50	2629	5
100213	16:00	1	r.justice	51	2161	9
100213	16:00	1	r.muffin	52	2520	4
100213	16:00	1	r.mosquito	53	1434	2
100213	16:00	1	r.erotic	54	2118	7
100213	16:00	1	r.runner	55	2751	6
100213	16:00	1	r.beauty	56	1815	7
100213	16:00	1	r.yellow	57	2428	8
100213	16:00	1	r.applause	58	1360	8
100213	16:00	1	r.pancakes	59	4799	3
100213	16:00	1	r.garment	60	1718	4
100213	16:00	1	howtype	1	26565	6
100313	10:58	1	speed	1	2850	43
100313	10:58	1	error	2	2063	97
100313	10:58	1	whichhand	3	7930	right
100313	10:58	1	f.thove	1	7717	5
100313	10:58	1	f.throbe	2	4553	4
100313	10:58	1	f.shache	3	3161	8
100313	10:58	1	f.ploop	4	1744	9
100313	10:58	1	f.neeth	5	2800	4
100313	10:58	1	f.dreeb	6	1262	4
100313	10:58	1	f.yague	7	1793	2
100313	10:58	1	f.thrake	8	2014	3
100313	10:58	1	f.thweer	9	2107	3
100313	10:58	1	f.gothe	10	1725	5
100313	10:58	1	f.skooth	11	2038	4
100313	10:58	1	f.skeeth	12	1051	4
100313	10:58	1	f.gleege	13	1006	4
100313	10:58	1	f.seeg	14	1163	4
100313	10:58	1	f.thweek	15	2042	3
100313	10:58	1	f.treem	16	1470	3
100313	10:58	1	f.smeef	17	2057	6
100313	10:58	1	f.slose	18	2549	6
100313	10:58	1	f.wothe	19	1557	3
100313	10:58	1	f.thobe	20	4420	3
100313	10:58	1	f.dwane	21	2130	2
100313	10:58	1	f.kloob	22	1698	7
100313	10:58	1	f.thrathe	23	2020	7
100313	10:58	1	f.thwabe	24	1569	5
100313	10:58	1	f.freef	25	1791	7
100313	10:58	1	f.shrashe	26	2134	3
100313	10:58	1	f.throgue	27	1198	3
100313	10:58	1	f.kreeb	28	2724	4
100313	10:58	1	f.broog	29	1469	5
100313	10:58	1	f.yeen	30	2063	4
100313	10:58	1	f.bleesh	31	1706	6
100313	10:58	1	f.slood	32	1197	5
100313	10:58	1	f.sweem	33	2010	4
100313	10:58	1	f.greech	34	2639	6
100313	10:58	1	f.spobe	35	2084	5
100313	10:58	1	f.twoor	36	2038	4
100313	10:58	1	f.stafe	37	2474	7
100313	10:58	1	f.cheed	38	2701	4
100313	10:58	1	f.chood	39	3151	6
100313	10:58	1	f.proosh	40	3023	5
100313	10:58	1	f.thwoove	41	1916	8
100313	10:58	1	f.gwoot	42	1766	7
100313	10:58	1	f.twage	43	1685	7
100313	10:58	1	f.groche	44	2679	6
100313	10:58	1	f.brobe	45	2257	5
100313	10:58	1	f.smave	46	1485	4
100313	10:58	1	f.shreer	47	1503	4
100313	10:58	1	f.dweet	48	1985	2
100313	10:58	1	f.stoosh	49	1199	3
100313	10:58	1	f.twope	50	1717	4
100313	10:58	1	f.thwoop	51	1230	4
100313	10:58	1	f.twathe	52	2217	3
100313	10:58	1	f.shreeg	53	3031	1
100313	10:58	1	f.drode	54	1531	2
100313	10:58	1	f.troom	55	2931	4
100313	10:58	1	f.zabe	56	4404	6
100313	10:58	1	f.froche	57	3107	8
100313	10:58	1	f.kleel	58	1733	4
100313	10:58	1	f.thwathe	59	1981	8
100313	10:58	1	f.snabe	60	1203	5
100313	10:58	1	r.garter	1	6205	6
100313	10:58	1	r.quality	2	6365	6
100313	10:58	1	r.iron	3	2341	5
100313	10:58	1	r.thermometer	4	5093	6
100313	10:58	1	r.vanity	5	2744	4
100313	10:58	1	r.infant	6	1784	9
100313	10:58	1	r.disappoint	7	2102	1
100313	10:58	1	r.scalding	8	1936	1
100313	10:58	1	r.starving	9	1168	1
100313	10:58	1	r.frigid	10	1935	2
100313	10:58	1	r.fraud	11	2519	2
100313	10:58	1	r.wedding	12	1864	9
100313	10:58	1	r.social	13	1844	8
100313	10:58	1	r.ink	14	1863	5
100313	10:58	1	r.brave	15	2450	7
100313	10:58	1	r.reverent	16	2758	5
100313	10:58	1	r.sour	17	1550	4
100313	10:58	1	r.column	18	2085	5
100313	10:58	1	r.pressure	19	2056	3
100313	10:58	1	r.lake	20	4171	7
100313	10:58	1	r.burdened	21	1867	3
100313	10:58	1	r.spider	22	2158	1
100313	10:58	1	r.trumpet	23	2038	6
100313	10:58	1	r.muddy	24	3426	4
100313	10:58	1	r.tank	25	1503	5
100313	10:58	1	r.pillow	26	1809	7
100313	10:58	1	r.beverage	27	1662	7
100313	10:58	1	r.cuddle	28	1977	9
100313	10:58	1	r.derelict	29	4015	4
100313	10:58	1	r.elevator	30	1637	5
100313	10:58	1	r.decorate	31	2377	7
100313	10:58	1	r.hand	32	2384	8
100313	10:58	1	r.pencil	33	1782	6
100313	10:58	1	r.cannon	34	2061	5
100313	10:58	1	r.friend	35	2160	9
100313	10:58	1	r.rigid	36	2158	3
100313	10:58	1	r.earth	37	1478	5
100313	10:58	1	r.crown	38	1512	9
100313	10:58	1	r.door	39	1329	5
100313	10:58	1	r.context	40	1985	6
100313	10:58	1	r.satisfied	41	2808	8
100313	10:58	1	r.nude	42	2086	7
100313	10:58	1	r.education	43	1344	7
100313	10:58	1	r.highway	44	1791	6
100313	10:58	1	r.venom	45	2430	4
100313	10:58	1	r.intimate	46	2370	9
100313	10:58	1	r.acceptance	47	1698	9
100313	10:58	1	r.dawn	48	2795	5
100313	10:58	1	r.clock	49	1169	5
100313	10:58	1	r.movie	50	1488	6
100313	10:58	1	r.house	51	1834	6
100313	10:58	1	r.leader	52	1766	7
100313	10:58	1	r.loyal	53	1493	9
100313	10:58	1	r.poster	54	2311	7
100313	10:58	1	r.gangrene	55	1832	1
100313	10:58	1	r.field	56	2516	4
100313	10:58	1	r.board	57	1597	4
100313	10:58	1	r.achievement	58	1723	9
100313	10:58	1	r.urine	59	2027	3
100313	10:58	1	r.ridicule	60	1744	3
100313	10:58	1	howtype	1	11022	5
100313	11:32	1	speed	1	3204	56
100313	11:32	1	error	2	2019	56
100313	11:32	1	whichhand	3	4145	Left
100313	11:32	1	f.smoge	1	5263	3
100313	11:32	1	f.mafe	2	3956	4
100313	11:32	1	f.vood	3	1932	2
100313	11:32	1	f.vafe	4	1132	4
100313	11:32	1	f.dwofe	5	1980	2
100313	11:32	1	f.seeb	6	1179	4
100313	11:32	1	f.looch	7	1457	3
100313	11:32	1	f.keeb	8	4180	5
100313	11:32	1	f.sleeb	9	1867	5
100313	11:32	1	f.threer	10	2190	4
100313	11:32	1	f.smope	11	2805	6
100313	11:32	1	f.glooch	12	2594	4
100313	11:32	1	f.smole	13	1609	4
100313	11:32	1	f.thweeze	14	2782	7
100313	11:32	1	f.thwase	15	2629	5
100313	11:32	1	f.neeg	16	1345	3
100313	11:32	1	f.thole	17	1057	4
100313	11:32	1	f.freef	18	4140	4
100313	11:32	1	f.shobe	19	1237	3
100313	11:32	1	f.theeb	20	4425	5
100313	11:32	1	f.plothe	21	1662	2
100313	11:32	1	f.shrase	22	2161	1
100313	11:32	1	f.twache	23	1528	3
100313	11:32	1	f.blooge	24	2273	5
100313	11:32	1	f.sneese	25	1387	5
100313	11:32	1	f.freech	26	1306	5
100313	11:32	1	f.sheeb	27	1715	4
100313	11:32	1	f.spote	28	1980	3
100313	11:32	1	f.speeg	29	1570	4
100313	11:32	1	f.trofe	30	7009	4
100313	11:32	1	f.frooge	31	3112	4
100313	11:32	1	f.klool	32	3985	3
100313	11:32	1	f.dweed	33	2224	6
100313	11:32	1	f.kweep	34	2381	5
100313	11:32	1	f.gleesh	35	3396	3
100313	11:32	1	f.gwoche	36	1354	4
100313	11:32	1	f.gwabe	37	2201	4
100313	11:32	1	f.kweeg	38	2239	3
100313	11:32	1	f.pleep	39	3147	5
100313	11:32	1	f.voop	40	1148	4
100313	11:32	1	f.shroove	41	2891	3
100313	11:32	1	f.flope	42	1782	3
100313	11:32	1	f.proop	43	2068	4
100313	11:32	1	f.groog	44	3639	5
100313	11:32	1	f.snone	45	1684	5
100313	11:32	1	f.teesh	46	3422	4
100313	11:32	1	f.thweet	47	2387	7
100313	11:32	1	f.dwache	48	1242	5
100313	11:32	1	f.shache	49	1318	4
100313	11:32	1	f.frathe	50	1799	5
100313	11:32	1	f.nague	51	1380	3
100313	11:32	1	f.shroze	52	1523	4
100313	11:32	1	f.snose	53	1835	4
100313	11:32	1	f.tave	54	1912	5
100313	11:32	1	f.cheeg	55	3473	5
100313	11:32	1	f.zague	56	1428	2
100313	11:32	1	f.frothe	57	1296	2
100313	11:32	1	f.greer	58	978	2
100313	11:32	1	f.throthe	59	1552	3
100313	11:32	1	f.swage	60	2759	4
100313	11:32	1	r.affection	1	2863	6
100313	11:32	1	r.clock	2	1194	5
100313	11:32	1	r.infection	3	2799	3
100313	11:32	1	r.optimism	4	1549	6
100313	11:32	1	r.appliance	5	1468	5
100313	11:32	1	r.justice	6	1583	6
100313	11:32	1	r.moral	7	3077	7
100313	11:32	1	r.muscular	8	5232	6
100313	11:32	1	r.imagine	9	1702	8
100313	11:32	1	r.silly	10	1343	7
100313	11:32	1	r.cash	11	1711	9
100313	11:32	1	r.yacht	12	1064	6
100313	11:32	1	r.favor	13	1386	7
100313	11:32	1	r.cabinet	14	1840	5
100313	11:32	1	r.hand	15	893	5
100313	11:32	1	r.nonsense	16	1486	5
100313	11:32	1	r.mind	17	1304	6
100313	11:32	1	r.ankle	18	1914	5
100313	11:32	1	r.useful	19	947	5
100313	11:32	1	r.rattle	20	1442	3
100313	11:32	1	r.water	21	1374	5
100313	11:32	1	r.lucky	22	1485	6
100313	11:32	1	r.idol	23	1471	6
100313	11:32	1	r.beauty	24	1969	6
100313	11:32	1	r.dark	25	2297	5
100313	11:32	1	r.meek	26	2683	5
100313	11:32	1	r.penalty	27	2605	4
100313	11:32	1	r.save	28	1059	5
100313	11:32	1	r.thought	29	1582	6
100313	11:32	1	r.killer	30	1493	1
100313	11:32	1	r.pest	31	2310	2
100313	11:32	1	r.torture	32	1951	1
100313	11:32	1	r.nasty	33	1359	2
100313	11:32	1	r.peace	34	1374	5
100313	11:32	1	r.astronaut	35	1133	5
100313	11:32	1	r.vomit	36	1749	4
100313	11:32	1	r.moody	37	3389	5
100313	11:32	1	r.diamond	38	1828	5
100313	11:32	1	r.revolver	39	7640	6
100313	11:32	1	r.trumpet	40	1198	5
100313	11:32	1	r.exercise	41	3747	5
100313	11:32	1	r.swift	42	1316	6
100313	11:32	1	r.pancakes	43	1773	5
100313	11:32	1	r.fork	44	1412	5
100313	11:32	1	r.shark	45	1488	5
100313	11:32	1	r.applause	46	2067	4
100313	11:32	1	r.invest	47	1446	6
100313	11:32	1	r.hospital	48	1800	4
100313	11:32	1	r.cane	49	3015	5
100313	11:32	1	r.depressed	50	1412	5
100313	11:32	1	r.man	51	2233	5
100313	11:32	1	r.delight	52	2509	6
100313	11:32	1	r.suffocate	53	1686	3
100313	11:32	1	r.cyclone	54	1145	5
100313	11:32	1	r.cork	55	1800	5
100313	11:32	1	r.scream	56	1374	3
100313	11:32	1	r.selfish	57	1508	3
100313	11:32	1	r.city	58	3246	7
100313	11:32	1	r.diver	59	3282	4
100313	11:32	1	r.youth	60	2429	5
100313	11:32	1	howtype	1	9592	5
100313	11:52	1	speed	1	4333	31
100313	11:52	1	error	2	2284	87
100313	11:52	1	whichhand	3	8735	right
100313	11:52	1	r.yacht	1	6942	9
100313	11:52	1	r.wagon	2	3223	3
100313	11:52	1	r.time	3	2133	5
100313	11:52	1	r.wedding	4	2861	8
100313	11:52	1	r.limber	5	2593	6
100313	11:52	1	r.idea	6	2750	8
100313	11:52	1	r.pervert	7	2439	1
100313	11:52	1	r.lonely	8	1491	1
100313	11:52	1	r.mildew	9	1573	1
100313	11:52	1	r.troubled	10	1516	2
100313	11:52	1	r.voyage	11	2533	8
100313	11:52	1	r.blossom	12	2405	9
100313	11:52	1	r.failure	13	1347	1
100313	11:52	1	r.pillow	14	4299	6
100313	11:52	1	r.vampire	15	3421	2
100313	11:52	1	r.innocent	16	3698	8
100313	11:52	1	r.vigorous	17	3925	3
100313	11:52	1	r.cook	18	3198	3
100313	11:52	1	r.quart	19	5108	6
100313	11:52	1	r.crash	20	1486	1
100313	11:52	1	r.bottle	21	6865	5
100313	11:52	1	r.victory	22	1517	4
100313	11:52	1	r.reserved	23	13742	5
100313	11:52	1	r.despairing	24	3250	3
100313	11:52	1	r.prestige	25	2870	9
100313	11:52	1	r.famous	26	1249	9
100313	11:52	1	r.addicted	27	4540	1
100313	11:52	1	r.lamp	28	1806	5
100313	11:52	1	r.coward	29	7195	1
100313	11:52	1	r.clock	30	1435	5
100313	11:52	1	r.miracle	31	2063	9
100313	11:52	1	r.promotion	32	4890	6
100313	11:52	1	r.ink	33	3005	5
100313	11:52	1	r.eat	34	11083	9
100313	11:52	1	r.memories	35	4312	9
100313	11:52	1	r.arrogant	36	3618	1
100313	11:52	1	r.locker	37	2160	3
100313	11:52	1	r.thankful	38	6487	9
100313	11:52	1	r.fork	39	2626	6
100313	11:52	1	r.health	40	13927	8
100313	11:52	1	r.mutation	41	6979	1
100313	11:52	1	r.tender	42	6243	6
100313	11:52	1	r.sleep	43	2896	8
100313	11:52	1	r.gun	44	3690	5
100313	11:52	1	r.outstanding	45	3517	9
100313	11:52	1	r.contempt	46	1655	5
100313	11:52	1	r.grass	47	11410	5
100313	11:52	1	r.slap	48	3402	2
100313	11:52	1	r.farm	49	4432	9
100313	11:52	1	r.trauma	50	1382	1
100313	11:52	1	r.narcotic	51	2460	1
100313	11:52	1	r.nasty	52	1343	1
100313	11:52	1	r.confident	53	7774	5
100313	11:52	1	r.funeral	54	5958	1
100313	11:52	1	r.depression	55	975	1
100313	11:52	1	r.trouble	56	1102	1
100313	11:52	1	r.intercourse	57	3647	9
100313	11:52	1	r.stove	58	4267	5
100313	11:52	1	r.stupid	59	4263	3
100313	11:52	1	r.lawsuit	60	5523	1
100313	11:52	1	f.drafe	1	6628	4
100313	11:52	1	f.thooch	2	6274	4
100313	11:52	1	f.freege	3	3198	4
100313	11:52	1	f.nashe	4	1932	3
100313	11:52	1	f.twache	5	1509	1
100313	11:52	1	f.pathe	6	3774	5
100313	11:52	1	f.kwoob	7	2750	4
100313	11:52	1	f.thwothe	8	1998	4
100313	11:52	1	f.joog	9	2731	2
100313	11:52	1	f.brashe	10	2732	5
100313	11:52	1	f.sleeb	11	3604	6
100313	11:52	1	f.thwooge	12	4027	6
100313	11:52	1	f.jothe	13	2168	4
100313	11:52	1	f.smofe	14	3991	5
100313	11:52	1	f.kwade	15	4182	5
100313	11:52	1	f.kleech	16	3133	3
100313	11:52	1	f.froosh	17	3078	6
100313	11:52	1	f.sweese	18	3360	7
100313	11:52	1	f.thwook	19	2152	4
100313	11:52	1	f.dwake	20	5519	6
100313	11:52	1	f.weeg	21	2282	3
100313	11:52	1	f.loshe	22	1604	2
100313	11:52	1	f.swoge	23	2657	3
100313	11:52	1	f.snode	24	2165	2
100313	11:52	1	f.sobe	25	3420	3
100313	11:52	1	f.yache	26	5954	7
100313	11:52	1	f.skabe	27	3387	5
100313	11:52	1	f.stobe	28	1594	5
100313	11:52	1	f.theeve	29	2815	2
100313	11:52	1	f.trobe	30	3076	3
100313	11:52	1	f.kloosh	31	2183	2
100313	11:52	1	f.klade	32	3022	4
100313	11:52	1	f.bloove	33	2723	5
100313	11:52	1	f.kwabe	34	1900	4
100313	11:52	1	f.shrabe	35	3197	4
100313	11:52	1	f.zoche	36	2212	3
100313	11:52	1	f.spape	37	6640	6
100313	11:52	1	f.grooge	38	3446	4
100313	11:52	1	f.yabe	39	3794	6
100313	11:52	1	f.gathe	40	2264	4
100313	11:52	1	f.throor	41	2596	6
100313	11:52	1	f.dothe	42	2114	4
100313	11:52	1	f.deeg	43	2987	4
100313	11:52	1	f.slade	44	2449	4
100313	11:52	1	f.plake	45	4692	6
100313	11:52	1	f.krobe	46	2559	4
100313	11:52	1	f.zabe	47	3039	3
100313	11:52	1	f.frooth	48	2075	3
100313	11:52	1	f.thrague	49	1350	3
100313	11:52	1	f.dwoshe	50	3805	4
100313	11:52	1	f.vood	51	3475	6
100313	11:52	1	f.thwoon	52	3447	5
100313	11:52	1	f.skofe	53	1514	4
100313	11:52	1	f.gleege	54	2068	4
100313	11:52	1	f.skague	55	1375	3
100313	11:52	1	f.prooch	56	2717	4
100313	11:52	1	f.shreeve	57	6022	4
100313	11:52	1	f.spoom	58	2045	6
100313	11:52	1	f.greer	59	1961	3
100313	11:52	1	f.brathe	60	2120	5
100313	11:52	1	howtype	1	17143	7
100313	12:27	1	speed	1	3017	60
100313	12:27	1	error	2	2015	98
100313	12:27	1	whichhand	3	7548	right
100313	12:27	1	f.thoshe	1	7355	5
100313	12:27	1	f.skeeve	2	7125	5
100313	12:27	1	f.boog	3	4271	6
100313	12:27	1	f.plare	4	2410	4
100313	12:27	1	f.stoose	5	4976	4
100313	12:27	1	f.skeeth	6	3919	4
100313	12:27	1	f.flooge	7	3465	4
100313	12:27	1	f.sweef	8	3188	6
100313	12:27	1	f.gweer	9	5259	4
100313	12:27	1	f.drabe	10	3583	5
100313	12:27	1	f.thweek	11	5790	5
100313	12:27	1	f.thrafe	12	6037	5
100313	12:27	1	f.broosh	13	3779	6
100313	12:27	1	f.gothe	14	2202	5
100313	12:27	1	f.thoog	15	1240	5
100313	12:27	1	f.smase	16	7852	5
100313	12:27	1	f.dwose	17	3857	4
100313	12:27	1	f.kreeg	18	4638	6
100313	12:27	1	f.sneen	19	1939	4
100313	12:27	1	f.tweel	20	2035	4
100313	12:27	1	f.gweeve	21	2927	5
100313	12:27	1	f.smeeg	22	4080	4
100313	12:27	1	f.sneege	23	4195	5
100313	12:27	1	f.draze	24	3954	5
100313	12:27	1	f.kwoose	25	1562	4
100313	12:27	1	f.tove	26	4513	5
100313	12:27	1	f.slode	27	6107	5
100313	12:27	1	f.troof	28	1014	5
100313	12:27	1	f.vooge	29	1778	4
100313	12:27	1	f.nooth	30	3241	3
100313	12:27	1	f.gwape	31	4549	7
100313	12:27	1	f.snooch	32	3134	7
100313	12:27	1	f.grage	33	5078	6
100313	12:27	1	f.kroche	34	3448	2
100313	12:27	1	f.shrale	35	4086	4
100313	12:27	1	f.throol	36	4585	4
100313	12:27	1	f.shrabe	37	3008	4
100313	12:27	1	f.nashe	38	1558	4
100313	12:27	1	f.shogue	39	2470	4
100313	12:27	1	f.kweeze	40	1521	4
100313	12:27	1	f.skague	41	1066	4
100313	12:27	1	f.beeg	42	1877	4
100313	12:27	1	f.kleef	43	2375	5
100313	12:27	1	f.thweem	44	1326	5
100313	12:27	1	f.yoob	45	2870	4
100313	12:27	1	f.gweeth	46	1361	4
100313	12:27	1	f.krache	47	1880	4
100313	12:27	1	f.dwoog	48	2746	4
100313	12:27	1	f.shreeve	49	1618	4
100313	12:27	1	f.nooge	50	1303	4
100313	12:27	1	f.snage	51	1289	4
100313	12:27	1	f.skoof	52	1579	4
100313	12:27	1	f.grobe	53	3641	3
100313	12:27	1	f.kweege	54	4358	4
100313	12:27	1	f.twoshe	55	4542	5
100313	12:27	1	f.joshe	56	4599	7
100313	12:27	1	f.bleeg	57	3102	3
100313	12:27	1	f.feeb	58	2488	7
100313	12:27	1	f.thood	59	2986	4
100313	12:27	1	f.freech	60	2193	4
100313	12:27	1	r.sick	1	3774	3
100313	12:27	1	r.coarse	2	3262	2
100313	12:27	1	r.wedding	3	2105	7
100313	12:27	1	r.tornado	4	2019	1
100313	12:27	1	r.swimmer	5	2640	7
100313	12:27	1	r.unfaithful	6	1557	1
100313	12:27	1	r.bottle	7	2524	5
100313	12:27	1	r.air	8	2421	9
100313	12:27	1	r.tennis	9	2770	5
100313	12:27	1	r.girl	10	3522	9
100313	12:27	1	r.mosquito	11	2387	3
100313	12:27	1	r.vigorous	12	2641	5
100313	12:27	1	r.memories	13	2670	8
100313	12:27	1	r.church	14	1793	9
100313	12:27	1	r.young	15	4719	8
100313	12:27	1	r.cuddle	16	1809	8
100313	12:27	1	r.gossip	17	4406	2
100313	12:27	1	r.leprosy	18	2181	2
100313	12:27	1	r.intellect	19	2315	9
100313	12:27	1	r.plant	20	2172	8
100313	12:27	1	r.needle	21	2939	2
100313	12:27	1	r.rabbit	22	2036	5
100313	12:27	1	r.priest	23	2256	8
100313	12:27	1	r.vomit	24	1796	2
100313	12:27	1	r.ambition	25	1970	9
100313	12:27	1	r.inhabitant	26	2817	5
100313	12:27	1	r.dog	27	2134	8
100313	12:27	1	r.muscular	28	1759	8
100313	12:27	1	r.infant	29	1566	9
100313	12:27	1	r.fame	30	2565	7
100313	12:27	1	r.news	31	1476	8
100313	12:27	1	r.infatuation	32	3798	4
100313	12:27	1	r.social	33	3140	5
100313	12:27	1	r.nipple	34	2781	4
100313	12:27	1	r.god	35	1628	9
100313	12:27	1	r.dazzle	36	2760	8
100313	12:27	1	r.sin	37	5143	2
100313	12:27	1	r.beast	38	2264	4
100313	12:27	1	r.rage	39	2619	2
100313	12:27	1	r.humane	40	4200	8
100313	12:27	1	r.thermometer	41	1935	5
100313	12:27	1	r.column	42	1255	5
100313	12:27	1	r.nervous	43	3763	4
100313	12:27	1	r.prairie	44	2874	5
100313	12:27	1	r.invader	45	1565	3
100313	12:27	1	r.tender	46	1756	5
100313	12:27	1	r.frigid	47	2571	3
100313	12:27	1	r.child	48	1994	9
100313	12:27	1	r.adorable	49	1416	9
100313	12:27	1	r.cyclone	50	1781	3
100313	12:27	1	r.scorching	51	1691	3
100313	12:27	1	r.mangle	52	2245	1
100313	12:27	1	r.tamper	53	1489	2
100313	12:27	1	r.hairpin	54	2147	5
100313	12:27	1	r.accident	55	1387	2
100313	12:27	1	r.mischief	56	1113	2
100313	12:27	1	r.fascinate	57	2602	7
100313	12:27	1	r.dove	58	1744	5
100313	12:27	1	r.rape	59	1544	1
100313	12:27	1	r.dustpan	60	6695	4
100313	12:27	1	howtype	1	13961	4
100313	12:57	1	speed	1	3476	42
100313	12:57	1	error	2	2176	97
100313	12:57	1	whichhand	3	8736	Left
100313	12:57	1	f.thwofe	1	7951	5
100313	12:57	1	f.threel	2	3913	5
100313	12:57	1	f.sweeze	3	8571	4
100313	12:57	1	f.fape	4	5196	4
100313	12:57	1	f.floob	5	4362	3
100313	12:57	1	f.dreed	6	2850	5
100313	12:57	1	f.jafe	7	2582	4
100313	12:57	1	f.vame	8	4309	5
100313	12:57	1	f.throgue	9	2439	5
100313	12:57	1	f.twoose	10	2915	4
100313	12:57	1	f.plale	11	2780	5
100313	12:57	1	f.smane	12	5355	5
100313	12:57	1	f.bloge	13	15539	5
100313	12:57	1	f.shrase	14	4255	4
100313	12:57	1	f.thwote	15	3116	5
100313	12:57	1	f.weech	16	3934	4
100313	12:57	1	f.greech	17	3271	4
100313	12:57	1	f.plore	18	6730	5
100313	12:57	1	f.stoose	19	6804	5
100313	12:57	1	f.zeesh	20	8723	5
100313	12:57	1	f.smode	21	10830	6
100313	12:57	1	f.dweeze	22	3230	4
100313	12:57	1	f.glashe	23	3547	6
100313	12:57	1	f.sague	24	2955	6
100313	12:57	1	f.vooge	25	3371	5
100313	12:57	1	f.vashe	26	5458	6
100313	12:57	1	f.zape	27	3622	5
100313	12:57	1	f.proop	28	2324	4
100313	12:57	1	f.sheege	29	2229	5
100313	12:57	1	f.dwase	30	10113	5
100313	12:57	1	f.swool	31	3197	6
100313	12:57	1	f.trome	32	2091	5
100313	12:57	1	f.shooge	33	7197	5
100313	12:57	1	f.slale	34	3836	5
100313	12:57	1	f.trooch	35	3386	4
100313	12:57	1	f.threef	36	3568	4
100313	12:57	1	f.zoge	37	2712	5
100313	12:57	1	f.freeve	38	10153	4
100313	12:57	1	f.gweeze	39	2651	5
100313	12:57	1	f.plave	40	3055	5
100313	12:57	1	f.dwote	41	15395	5
100313	12:57	1	f.dweeth	42	2406	6
100313	12:57	1	f.joosh	43	2843	7
100313	12:57	1	f.nothe	44	13327	5
100313	12:57	1	f.soob	45	4635	3
100313	12:57	1	f.shreeze	46	10937	5
100313	12:57	1	f.thweek	47	2348	4
100313	12:57	1	f.snathe	48	7060	4
100313	12:57	1	f.skothe	49	2288	3
100313	12:57	1	f.kwoosh	50	2571	6
100313	12:57	1	f.twabe	51	2658	5
100313	12:57	1	f.gwoche	52	6638	6
100313	12:57	1	f.kwoche	53	4988	5
100313	12:57	1	f.floche	54	2619	6
100313	12:57	1	f.yache	55	8768	7
100313	12:57	1	f.dwogue	56	4673	4
100313	12:57	1	f.threeve	57	3581	5
100313	12:57	1	f.spape	58	2492	6
100313	12:57	1	f.spome	59	2926	5
100313	12:57	1	f.stashe	60	3527	6
100313	12:57	1	r.sweetheart	1	4928	9
100313	12:57	1	r.jolly	2	2481	8
100313	12:57	1	r.betray	3	3316	3
100313	12:57	1	r.confused	4	1486	5
100313	12:57	1	r.poverty	5	2760	3
100313	12:57	1	r.suspicious	6	2999	5
100313	12:57	1	r.gloom	7	1701	2
100313	12:57	1	r.moment	8	1590	5
100313	12:57	1	r.trouble	9	1301	4
100313	12:57	1	r.crushed	10	2702	1
100313	12:57	1	r.grateful	11	1352	7
100313	12:57	1	r.coffin	12	1480	5
100313	12:57	1	r.distressed	13	1442	4
100313	12:57	1	r.addicted	14	2702	5
100313	12:57	1	r.yacht	15	1768	7
100313	12:57	1	r.ulcer	16	2199	4
100313	12:57	1	r.humble	17	1652	6
100313	12:57	1	r.severe	18	2112	5
100313	12:57	1	r.odd	19	1049	5
100313	12:57	1	r.excellence	20	1837	7
100313	12:57	1	r.sphere	21	2288	6
100313	12:57	1	r.kick	22	2107	5
100313	12:57	1	r.mushroom	23	2029	7
100313	12:57	1	r.python	24	2113	5
100313	12:57	1	r.aroused	25	2522	8
100313	12:57	1	r.embarrassed	26	2242	4
100313	12:57	1	r.useful	27	2735	6
100313	12:57	1	r.world	28	4320	5
100313	12:57	1	r.anguished	29	2498	2
100313	12:57	1	r.punishment	30	1875	3
100313	12:57	1	r.lesbian	31	3894	7
100313	12:57	1	r.errand	32	3137	5
100313	12:57	1	r.fantasy	33	2857	6
100313	12:57	1	r.scalding	34	3117	4
100313	12:57	1	r.mobility	35	5263	5
100313	12:57	1	r.hug	36	1635	7
100313	12:57	1	r.book	37	3303	6
100313	12:57	1	r.allergy	38	1617	4
100313	12:57	1	r.green	39	1830	5
100313	12:57	1	r.rifle	40	1378	5
100313	12:57	1	r.idea	41	1520	6
100313	12:57	1	r.paralysis	42	1977	3
100313	12:57	1	r.history	43	1680	6
100313	12:57	1	r.phase	44	2210	5
100313	12:57	1	r.alcoholic	45	2823	5
100313	12:57	1	r.scholar	46	1844	7
100313	12:57	1	r.cancer	47	2152	2
100313	12:57	1	r.valentine	48	2255	8
100313	12:57	1	r.excitement	49	1403	7
100313	12:57	1	r.market	50	1649	5
100313	12:57	1	r.swimmer	51	1780	5
100313	12:57	1	r.muffin	52	1795	6
100313	12:57	1	r.good	53	1176	6
100313	12:57	1	r.hay	54	2102	5
100313	12:57	1	r.venom	55	1816	4
100313	12:57	1	r.addict	56	3517	4
100313	12:57	1	r.lavish	57	1463	6
100313	12:57	1	r.umbrella	58	1385	5
100313	12:57	1	r.glamour	59	1519	6
100313	12:57	1	r.hairpin	60	1688	7
100313	12:57	1	howtype	1	11857	6
100313	13:57	1	speed	1	4303	51
100313	13:57	1	error	2	2599	100
100313	13:57	1	whichhand	3	4533	right
100313	13:57	1	f.thafe	1	9707	5
100313	13:57	1	f.thwome	2	6487	8
100313	13:57	1	f.glothe	3	4259	3
100313	13:57	1	f.snoosh	4	3271	7
100313	13:57	1	f.kroche	5	2002	2
100313	13:57	1	f.snafe	6	3280	5
100313	13:57	1	f.snogue	7	2603	1
100313	13:57	1	f.steese	8	4296	5
100313	13:57	1	f.shrashe	9	2979	8
100313	13:57	1	f.boove	10	2578	7
100313	13:57	1	f.thode	11	2576	4
100313	13:57	1	f.tofe	12	3135	9
100313	13:57	1	f.yeeze	13	2695	9
100313	13:57	1	f.yabe	14	1905	4
100313	13:57	1	f.gooch	15	2515	5
100313	13:57	1	f.nathe	16	1548	2
100313	13:57	1	f.gweed	17	2332	6
100313	13:57	1	f.wooch	18	2276	5
100313	13:57	1	f.dwope	19	3990	4
100313	13:57	1	f.smooze	20	3486	7
100313	13:57	1	f.slose	21	1720	5
100313	13:57	1	f.blogue	22	2473	1
100313	13:57	1	f.leech	23	1052	1
100313	13:57	1	f.zeek	24	2888	7
100313	13:57	1	f.frothe	25	1538	8
100313	13:57	1	f.fobe	26	1538	5
100313	13:57	1	f.thweer	27	1699	3
100313	13:57	1	f.throosh	28	2380	8
100313	13:57	1	f.nage	29	1179	5
100313	13:57	1	f.skose	30	1889	6
100313	13:57	1	f.slafe	31	979	2
100313	13:57	1	f.weech	32	2545	3
100313	13:57	1	f.kwoom	33	2329	6
100313	13:57	1	f.thoosh	34	1122	5
100313	13:57	1	f.shoog	35	1874	7
100313	13:57	1	f.brare	36	1685	4
100313	13:57	1	f.thwague	37	1583	1
100313	13:57	1	f.gloog	38	2558	8
100313	13:57	1	f.snoom	39	2214	6
100313	13:57	1	f.deeth	40	1938	5
100313	13:57	1	f.swale	41	1963	4
100313	13:57	1	f.neege	42	2042	6
100313	13:57	1	f.kwave	43	2382	8
100313	13:57	1	f.sooch	44	2973	3
100313	13:57	1	f.threeth	45	2444	5
100313	13:57	1	f.sabe	46	1912	4
100313	13:57	1	f.floove	47	2745	7
100313	13:57	1	f.bloob	48	1673	8
100313	13:57	1	f.kwache	49	1324	2
100313	13:57	1	f.blove	50	2365	6
100313	13:57	1	f.neesh	51	1316	4
100313	13:57	1	f.gothe	52	2212	7
100313	13:57	1	f.dobe	53	1545	8
100313	13:57	1	f.gloose	54	1945	4
100313	13:57	1	f.jooch	55	1217	9
100313	13:57	1	f.steeg	56	2941	8
100313	13:57	1	f.snone	57	1446	2
100313	13:57	1	f.kwoove	58	2361	4
100313	13:57	1	f.veesh	59	2609	2
100313	13:57	1	f.dofe	60	1503	8
100313	13:57	1	r.scissors	1	4532	6
100313	13:57	1	r.gender	2	2517	7
100313	13:57	1	r.slow	3	4629	3
100313	13:57	1	r.violin	4	1939	9
100313	13:57	1	r.detest	5	2211	5
100313	13:57	1	r.razor	6	2864	1
100313	13:57	1	r.baby	7	1684	9
100313	13:57	1	r.incentive	8	1214	9
100313	13:57	1	r.kerosene	9	1995	5
100313	13:57	1	r.anguished	10	1880	1
100313	13:57	1	r.vanity	11	2667	5
100313	13:57	1	r.impotent	12	2142	4
100313	13:57	1	r.blister	13	2118	1
100313	13:57	1	r.acceptance	14	1663	9
100313	13:57	1	r.highway	15	1850	7
100313	13:57	1	r.paper	16	1510	5
100313	13:57	1	r.travel	17	918	5
100313	13:57	1	r.scapegoat	18	1383	1
100313	13:57	1	r.item	19	1389	6
100313	13:57	1	r.kind	20	2116	9
100313	13:57	1	r.method	21	1340	7
100313	13:57	1	r.pencil	22	2269	4
100313	13:57	1	r.contents	23	1832	8
100313	13:57	1	r.daylight	24	1268	9
100313	13:57	1	r.blase	25	1407	2
100313	13:57	1	r.foam	26	2284	3
100313	13:57	1	r.tumor	27	1367	2
100313	13:57	1	r.health	28	1478	9
100313	13:57	1	r.dignified	29	1968	6
100313	13:57	1	r.maniac	30	1215	8
100313	13:57	1	r.friendly	31	1340	6
100313	13:57	1	r.perfume	32	1380	7
100313	13:57	1	r.cook	33	1826	9
100313	13:57	1	r.snow	34	1902	9
100313	13:57	1	r.severe	35	2096	1
100313	13:57	1	r.silly	36	1490	9
100313	13:57	1	r.soothe	37	2268	4
100313	13:57	1	r.disgusted	38	871	2
100313	13:57	1	r.awed	39	1737	8
100313	13:57	1	r.treasure	40	1354	9
100313	13:57	1	r.watch	41	849	6
100313	13:57	1	r.stress	42	2589	3
100313	13:57	1	r.king	43	1971	7
100313	13:57	1	r.seat	44	754	6
100313	13:57	1	r.proud	45	1801	9
100313	13:57	1	r.trauma	46	1447	1
100313	13:57	1	r.windmill	47	914	5
100313	13:57	1	r.hat	48	2291	8
100313	13:57	1	r.breeze	49	1854	9
100313	13:57	1	r.bandage	50	1633	2
100313	13:57	1	r.blackmail	51	1349	3
100313	13:57	1	r.time	52	1101	4
100313	13:57	1	r.glass	53	1158	5
100313	13:57	1	r.corrupt	54	1221	1
100313	13:57	1	r.decompose	55	1762	2
100313	13:57	1	r.rattle	56	1265	8
100313	13:57	1	r.golfer	57	1484	7
100313	13:57	1	r.invest	58	1350	6
100313	13:57	1	r.massacre	59	1254	1
100313	13:57	1	r.crime	60	985	1
100313	13:57	1	howtype	1	8182	6
100413	11:55	1	speed	1	4662	41
100413	11:55	1	error	2	3192	95
100413	11:55	1	whichhand	3	6950	Right
100413	11:55	1	r.elegant	1	6838	7
100413	11:55	1	r.lake	2	2116	9
100413	11:55	1	r.privacy	3	1861	6
100413	11:55	1	r.rancid	4	3319	2
100413	11:55	1	r.crude	5	1328	2
100413	11:55	1	r.contempt	6	1632	3
100413	11:55	1	r.grenade	7	1493	4
100413	11:55	1	r.destruction	8	1919	3
100413	11:55	1	r.square	9	1496	5
100413	11:55	1	r.inferior	10	1633	5
100413	11:55	1	r.nurse	11	1542	7
100413	11:55	1	r.depressed	12	1809	4
100413	11:55	1	r.dove	13	1827	8
100413	11:55	1	r.lion	14	1439	6
100413	11:55	1	r.diploma	15	1555	8
100413	11:55	1	r.cold	16	2346	3
100413	11:55	1	r.waste	17	1762	2
100413	11:55	1	r.appliance	18	1929	6
100413	11:55	1	r.orchestra	19	2881	7
100413	11:55	1	r.serious	20	1540	6
100413	11:55	1	r.overwhelmed	21	1820	4
100413	11:55	1	r.morbid	22	1657	2
100413	11:55	1	r.shamed	23	1810	3
100413	11:55	1	r.nature	24	2175	6
100413	11:55	1	r.errand	25	1398	5
100413	11:55	1	r.victim	26	1364	4
100413	11:55	1	r.hungry	27	1971	5
100413	11:55	1	r.muscular	28	1626	7
100413	11:55	1	r.slum	29	3014	3
100413	11:55	1	r.method	30	1603	5
100413	11:55	1	r.decorate	31	1633	6
100413	11:55	1	r.honey	32	1397	7
100413	11:55	1	r.addict	33	1818	3
100413	11:55	1	r.alley	34	1632	4
100413	11:55	1	r.detail	35	1820	6
100413	11:55	1	r.palace	36	1680	7
100413	11:55	1	r.outstanding	37	1419	8
100413	11:55	1	r.pleasure	38	1216	8
100413	11:55	1	r.event	39	2404	5
100413	11:55	1	r.skull	40	1194	4
100413	11:55	1	r.air	41	2200	6
100413	11:55	1	r.hell	42	2445	4
100413	11:55	1	r.health	43	2649	6
100413	11:55	1	r.quick	44	3797	6
100413	11:55	1	r.scorching	45	7707	4
100413	11:55	1	r.spring	46	4894	8
100413	11:55	1	r.insane	47	2152	4
100413	11:55	1	r.dirt	48	3329	5
100413	11:55	1	r.sweetheart	49	1689	6
100413	11:55	1	r.mobility	50	1980	7
100413	11:55	1	r.tragedy	51	3018	3
100413	11:55	1	r.offend	52	1927	3
100413	11:55	1	r.criminal	53	1655	2
100413	11:55	1	r.mind	54	2195	5
100413	11:55	1	r.bold	55	2977	6
100413	11:55	1	r.cell	56	4016	5
100413	11:55	1	r.sour	57	3165	4
100413	11:55	1	r.butter	58	1445	6
100413	11:55	1	r.ankle	59	2696	5
100413	11:55	1	r.ulcer	60	1778	2
100413	11:55	1	f.krooth	1	3693	5
100413	11:55	1	f.gwake	2	1543	6
100413	11:55	1	f.brooth	3	1599	5
100413	11:55	1	f.thwore	4	1573	4
100413	11:55	1	f.shreeze	5	2971	4
100413	11:55	1	f.kwose	6	2019	5
100413	11:55	1	f.slashe	7	2112	3
100413	11:55	1	f.sloog	8	1825	6
100413	11:55	1	f.smoove	9	1366	7
100413	11:55	1	f.trague	10	1564	7
100413	11:55	1	f.gwone	11	1507	5
100413	11:55	1	f.gwoze	12	2013	6
100413	11:55	1	f.gloose	13	1242	7
100413	11:55	1	f.nooth	14	1750	4
100413	11:55	1	f.treege	15	3078	3
100413	11:55	1	f.brashe	16	1736	4
100413	11:55	1	f.prothe	17	1321	6
100413	11:55	1	f.klape	18	1569	7
100413	11:55	1	f.snoose	19	1896	7
100413	11:55	1	f.frache	20	1186	5
100413	11:55	1	f.snage	21	1704	5
100413	11:55	1	f.cheem	22	1570	5
100413	11:55	1	f.smeel	23	2513	3
100413	11:55	1	f.thrare	24	1626	6
100413	11:55	1	f.swoob	25	1863	4
100413	11:55	1	f.stogue	26	2521	6
100413	11:55	1	f.zafe	27	2643	8
100413	11:55	1	f.soche	28	2254	7
100413	11:55	1	f.stashe	29	1106	6
100413	11:55	1	f.gwooch	30	1764	4
100413	11:55	1	f.sneege	31	2675	4
100413	11:55	1	f.drood	32	3030	3
100413	11:55	1	f.fleeg	33	2010	4
100413	11:55	1	f.thwothe	34	1448	5
100413	11:55	1	f.thwathe	35	1747	5
100413	11:55	1	f.kwooze	36	4082	6
100413	11:55	1	f.thwoke	37	3542	5
100413	11:55	1	f.slofe	38	2918	6
100413	11:55	1	f.pague	39	3736	6
100413	11:55	1	f.peem	40	2504	5
100413	11:55	1	f.weeth	41	3290	3
100413	11:55	1	f.yeeve	42	3485	4
100413	11:55	1	f.thale	43	3728	6
100413	11:55	1	f.spathe	44	2201	6
100413	11:55	1	f.threep	45	1670	4
100413	11:55	1	f.slale	46	2953	5
100413	11:55	1	f.breeth	47	5074	7
100413	11:55	1	f.toog	48	2301	4
100413	11:55	1	f.kwague	49	6991	5
100413	11:55	1	f.tweeve	50	3239	4
100413	11:55	1	f.zeed	51	1891	4
100413	11:55	1	f.snoof	52	1534	5
100413	11:55	1	f.deeth	53	1894	3
100413	11:55	1	f.klool	54	1775	5
100413	11:55	1	f.boshe	55	1830	5
100413	11:55	1	f.drafe	56	1419	6
100413	11:55	1	f.frave	57	1240	6
100413	11:55	1	f.thwote	58	1236	4
100413	11:55	1	f.yooge	59	1320	4
100413	11:55	1	f.tweeb	60	1976	5
100413	11:55	1	howtype	1	23317	5
100413	12:31	1	speed	1	3036	53
100413	12:31	1	error	2	1964	94
100413	12:31	1	whichhand	3	7693	right
100413	12:31	1	f.groosh	1	10565	5
100413	12:31	1	f.gwoze	2	8366	5
100413	12:31	1	f.smoop	3	3344	3
100413	12:31	1	f.frage	4	4600	3
100413	12:31	1	f.spabe	5	3823	6
100413	12:31	1	f.thwoot	6	7996	4
100413	12:31	1	f.toshe	7	3100	7
100413	12:31	1	f.looch	8	3271	3
100413	12:31	1	f.twoshe	9	5594	5
100413	12:31	1	f.theeth	10	2937	6
100413	12:31	1	f.gwore	11	2954	2
100413	12:31	1	f.snoosh	12	5193	5
100413	12:31	1	f.proom	13	3880	7
100413	12:31	1	f.dwase	14	8827	4
100413	12:31	1	f.shrase	15	6546	5
100413	12:31	1	f.dwathe	16	3003	7
100413	12:31	1	f.thwate	17	4017	4
100413	12:31	1	f.kabe	18	7102	3
100413	12:31	1	f.yoob	19	5314	7
100413	12:31	1	f.swame	20	3300	8
100413	12:31	1	f.gwoke	21	9278	2
100413	12:31	1	f.snase	22	5267	3
100413	12:31	1	f.dooch	23	3535	8
100413	12:31	1	f.snoob	24	3896	2
100413	12:31	1	f.swage	25	2714	9
100413	12:31	1	f.thweep	26	4187	3
100413	12:31	1	f.zake	27	4922	8
100413	12:31	1	f.broosh	28	6164	8
100413	12:31	1	f.slafe	29	7612	7
100413	12:31	1	f.vade	30	4596	5
100413	12:31	1	f.bleef	31	3466	7
100413	12:31	1	f.zeeth	32	3246	7
100413	12:31	1	f.gloose	33	5602	9
100413	12:31	1	f.veek	34	2345	4
100413	12:31	1	f.shroshe	35	3448	3
100413	12:31	1	f.yope	36	1852	3
100413	12:31	1	f.zove	37	5824	6
100413	12:31	1	f.thwoor	38	4430	8
100413	12:31	1	f.ploosh	39	3779	7
100413	12:31	1	f.kwoze	40	3066	7
100413	12:31	1	f.sweese	41	4286	8
100413	12:31	1	f.zode	42	5617	6
100413	12:31	1	f.tweem	43	4991	3
100413	12:31	1	f.shroog	44	6398	4
100413	12:31	1	f.fape	45	11869	4
100413	12:31	1	f.skeeg	46	5747	2
100413	12:31	1	f.floof	47	3700	7
100413	12:31	1	f.zabe	48	7055	5
100413	12:31	1	f.kwoog	49	3428	7
100413	12:31	1	f.sneech	50	2321	2
100413	12:31	1	f.neeb	51	6554	3
100413	12:31	1	f.dooth	52	2707	6
100413	12:31	1	f.zogue	53	2893	5
100413	12:31	1	f.shrate	54	7270	5
100413	12:31	1	f.snave	55	3803	4
100413	12:31	1	f.thofe	56	4338	3
100413	12:31	1	f.thwope	57	2491	3
100413	12:31	1	f.flooth	58	2782	7
100413	12:31	1	f.thwoshe	59	3052	8
100413	12:31	1	f.drooth	60	3648	7
100413	12:31	1	r.frustrated	1	3363	2
100413	12:31	1	r.scapegoat	2	2714	2
100413	12:31	1	r.absurd	3	3108	5
100413	12:31	1	r.perfection	4	4613	5
100413	12:31	1	r.month	5	4699	5
100413	12:31	1	r.abuse	6	2790	2
100413	12:31	1	r.syphilis	7	2173	2
100413	12:31	1	r.mighty	8	2748	8
100413	12:31	1	r.dummy	9	7355	6
100413	12:31	1	r.material	10	2461	5
100413	12:31	1	r.mangle	11	4544	3
100413	12:31	1	r.slave	12	1737	2
100413	12:31	1	r.contempt	13	5729	3
100413	12:31	1	r.pressure	14	4739	6
100413	12:31	1	r.treasure	15	2324	8
100413	12:31	1	r.lightning	16	5453	8
100413	12:31	1	r.tune	17	3554	7
100413	12:31	1	r.bar	18	2962	7
100413	12:31	1	r.bath	19	4449	3
100413	12:31	1	r.garter	20	3878	5
100413	12:31	1	r.gender	21	1825	5
100413	12:31	1	r.pistol	22	3517	5
100413	12:31	1	r.rescue	23	2287	7
100413	12:31	1	r.burn	24	3089	6
100413	12:31	1	r.slap	25	5540	4
100413	12:31	1	r.angry	26	2398	3
100413	12:31	1	r.stove	27	2532	6
100413	12:31	1	r.gymnast	28	2564	5
100413	12:31	1	r.reward	29	2507	8
100413	12:31	1	r.casino	30	3365	6
100413	12:31	1	r.loser	31	3916	4
100413	12:31	1	r.skull	32	4870	6
100413	12:31	1	r.python	33	2642	5
100413	12:31	1	r.drown	34	1943	2
100413	12:31	1	r.alimony	35	2414	3
100413	12:31	1	r.travel	36	3739	7
100413	12:31	1	r.paper	37	1524	5
100413	12:31	1	r.disloyal	38	1885	2
100413	12:31	1	r.market	39	3759	6
100413	12:31	1	r.blubber	40	4447	8
100413	12:31	1	r.burdened	41	1644	2
100413	12:31	1	r.inspired	42	1647	8
100413	12:31	1	r.idea	43	5587	5
100413	12:31	1	r.bird	44	1770	5
100413	12:31	1	r.handsome	45	5609	6
100413	12:31	1	r.field	46	8479	5
100413	12:31	1	r.nude	47	2676	5
100413	12:31	1	r.wit	48	2046	6
100413	12:31	1	r.shark	49	3834	4
100413	12:31	1	r.incentive	50	4495	6
100413	12:31	1	r.cemetery	51	2297	5
100413	12:31	1	r.thermometer	52	3123	5
100413	12:31	1	r.mystic	53	2013	6
100413	12:31	1	r.disaster	54	2970	3
100413	12:31	1	r.mold	55	2537	3
100413	12:31	1	r.grief	56	2081	2
100413	12:31	1	r.pleasure	57	2444	7
100413	12:31	1	r.obey	58	3216	5
100413	12:31	1	r.kindness	59	2485	8
100413	12:31	1	r.loyal	60	2967	8
100413	12:31	1	howtype	1	11149	6
100413	13:59	1	speed	1	3754	71
