date	time	subject	trialcode	trialnum	latency	response
102413	13:50	1	speed	1	2735	47
102413	13:50	1	error	2	1928	97
102413	13:50	1	whichhand	3	5201	right
102413	13:50	1	f.lool	1	17703	1
102413	13:50	1	f.shroom	2	5966	1
102413	13:50	1	f.troob	3	1839	1
102413	13:50	1	f.groche	4	2723	1
102413	13:50	1	f.kloche	5	3108	1
102413	13:50	1	f.frathe	6	4463	2
102413	13:50	1	f.prothe	7	2018	2
102413	13:50	1	f.zabe	8	2488	2
102413	13:50	1	f.dwase	9	3010	3
102413	13:50	1	f.fleeve	10	1752	2
102413	13:50	1	f.vabe	11	2783	3
102413	13:50	1	f.gweeg	12	2670	2
102413	13:50	1	f.drague	13	3961	2
102413	13:50	1	f.fofe	14	3033	2
102413	13:50	1	f.steesh	15	1614	2
102413	13:50	1	f.vade	16	4730	2
102413	13:50	1	f.swogue	17	2492	1
102413	13:50	1	f.thwole	18	2022	1
102413	13:50	1	f.noche	19	5156	3
102413	13:50	1	f.frague	20	2244	2
102413	13:50	1	f.slode	21	3520	3
102413	13:50	1	f.slashe	22	2794	3
102413	13:50	1	f.droge	23	2272	2
102413	13:50	1	f.tave	24	6699	4
102413	13:50	1	f.stoche	25	1634	3
102413	13:50	1	f.skase	26	3170	4
102413	13:50	1	f.preech	27	2690	5
102413	13:50	1	f.skoge	28	2981	2
102413	13:50	1	f.thwoot	29	1948	1
102413	13:50	1	f.toog	30	1843	1
102413	13:50	1	f.snooth	31	2151	4
102413	13:50	1	f.preeth	32	3106	2
102413	13:50	1	f.proom	33	1656	3
102413	13:50	1	f.bleeg	34	2427	1
102413	13:50	1	f.noof	35	1288	1
102413	13:50	1	f.troke	36	2554	2
102413	13:50	1	f.sloor	37	2010	1
102413	13:50	1	f.pleer	38	1495	1
102413	13:50	1	f.trague	39	2721	1
102413	13:50	1	f.thrare	40	1802	1
102413	13:50	1	f.shrare	41	1776	1
102413	13:50	1	f.grobe	42	1638	1
102413	13:50	1	f.deef	43	1746	1
102413	13:50	1	f.breesh	44	1946	2
102413	13:50	1	f.thogue	45	2010	1
102413	13:50	1	f.sobe	46	3303	2
102413	13:50	1	f.twoop	47	1529	1
102413	13:50	1	f.shogue	48	2010	1
102413	13:50	1	f.throthe	49	1447	1
102413	13:50	1	f.thook	50	1362	1
102413	13:50	1	f.blabe	51	1873	3
102413	13:50	1	f.droze	52	6252	2
102413	13:50	1	f.yope	53	4593	1
102413	13:50	1	f.flooth	54	1552	1
102413	13:50	1	f.prame	55	3911	5
102413	13:50	1	f.twabe	56	1609	1
102413	13:50	1	f.reesh	57	1502	1
102413	13:50	1	f.mafe	58	1720	1
102413	13:50	1	f.zoove	59	3297	1
102413	13:50	1	f.sweese	60	1779	1
102413	13:50	1	r.quality	1	2729	5
102413	13:50	1	r.teacher	2	2682	5
102413	13:50	1	r.coarse	3	2788	3
102413	13:50	1	r.scurvy	4	1683	2
102413	13:50	1	r.adventure	5	3022	7
102413	13:50	1	r.plant	6	1827	5
102413	13:50	1	r.journal	7	2055	5
102413	13:50	1	r.rancid	8	2555	4
102413	13:50	1	r.scorpion	9	3307	3
102413	13:50	1	r.man	10	1589	5
102413	13:50	1	r.insult	11	3459	5
102413	13:50	1	r.bed	12	4343	9
102413	13:50	1	r.divorce	13	2328	4
102413	13:50	1	r.spring	14	2048	9
102413	13:50	1	r.butterfly	15	1700	8
102413	13:50	1	r.thorn	16	1837	5
102413	13:50	1	r.rainbow	17	2650	8
102413	13:50	1	r.youth	18	2542	5
102413	13:50	1	r.city	19	1334	5
102413	13:50	1	r.skull	20	1582	5
102413	13:50	1	r.alcoholic	21	2756	4
102413	13:50	1	r.paper	22	2716	5
102413	13:50	1	r.putrid	23	1974	1
102413	13:50	1	r.intellect	24	2365	5
102413	13:50	1	r.heroin	25	2644	1
102413	13:50	1	r.nasty	26	1952	1
102413	13:50	1	r.house	27	1736	5
102413	13:50	1	r.windmill	28	1640	5
102413	13:50	1	r.money	29	1581	5
102413	13:50	1	r.saint	30	1515	5
102413	13:50	1	r.appliance	31	2652	3
102413	13:50	1	r.mother	32	1560	5
102413	13:50	1	r.weapon	33	2511	5
102413	13:50	1	r.alien	34	2440	3
102413	13:50	1	r.mistake	35	3236	4
102413	13:50	1	r.whistle	36	1825	4
102413	13:50	1	r.achievement	37	3182	5
102413	13:50	1	r.idea	38	1605	5
102413	13:50	1	r.masterful	39	1842	5
102413	13:50	1	r.pollute	40	5199	4
102413	13:50	1	r.diver	41	2037	5
102413	13:50	1	r.banner	42	5209	5
102413	13:50	1	r.confident	43	5288	5
102413	13:50	1	r.fight	44	2459	3
102413	13:50	1	r.fear	45	1671	3
102413	13:50	1	r.gripe	46	3098	1
102413	13:50	1	r.aggressive	47	2547	1
102413	13:50	1	r.thermometer	48	2387	1
102413	13:50	1	r.boy	49	1354	5
102413	13:50	1	r.method	50	2058	5
102413	13:50	1	r.terrified	51	1925	4
102413	13:50	1	r.ambulance	52	2711	5
102413	13:50	1	r.hostile	53	1720	3
102413	13:50	1	r.bandage	54	1921	5
102413	13:50	1	r.insect	55	2426	4
102413	13:50	1	r.derelict	56	2966	1
102413	13:50	1	r.bench	57	2054	5
102413	13:50	1	r.laughter	58	1889	7
102413	13:50	1	r.awed	59	2499	2
102413	13:50	1	r.letter	60	1606	5
102413	13:50	1	howtype	1	9866	6
102513	11:58	1	speed	1	11443	50
102513	11:58	1	error	2	1812	98
102513	11:58	1	whichhand	3	8634	right
102513	11:58	1	r.immature	1	11188	5
102513	11:58	1	r.king	2	4582	8
102513	11:58	1	r.gold	3	3109	9
102513	11:58	1	r.decompose	4	3975	1
102513	11:58	1	r.strong	5	2542	9
102513	11:58	1	r.hand	6	2949	5
102513	11:58	1	r.avalanche	7	2772	3
102513	11:58	1	r.blind	8	2541	3
102513	11:58	1	r.abortion	9	2292	2
102513	11:58	1	r.anguished	10	2695	2
102513	11:58	1	r.illness	11	1281	2
102513	11:58	1	r.icebox	12	2715	5
102513	11:58	1	r.gossip	13	3173	4
102513	11:58	1	r.dustpan	14	2963	5
102513	11:58	1	r.skeptical	15	1385	5
102513	11:58	1	r.circle	16	1357	5
102513	11:58	1	r.lost	17	2100	2
102513	11:58	1	r.modest	18	2975	7
102513	11:58	1	r.holiday	19	1830	7
102513	11:58	1	r.ridicule	20	2258	2
102513	11:58	1	r.news	21	5879	4
102513	11:58	1	r.ugly	22	1770	3
102513	11:58	1	r.delight	23	2392	8
102513	11:58	1	r.pinch	24	2583	4
102513	11:58	1	r.trauma	25	2572	1
102513	11:58	1	r.pillow	26	2506	7
102513	11:58	1	r.scum	27	1789	1
102513	11:58	1	r.infant	28	2610	8
102513	11:58	1	r.bird	29	2391	7
102513	11:58	1	r.alive	30	2894	8
102513	11:58	1	r.pasta	31	2928	6
102513	11:58	1	r.salute	32	1960	6
102513	11:58	1	r.bathroom	33	3272	3
102513	11:58	1	r.honor	34	2628	9
102513	11:58	1	r.pest	35	2480	2
102513	11:58	1	r.wish	36	4027	7
102513	11:58	1	r.sickness	37	1856	1
102513	11:58	1	r.tense	38	4308	3
102513	11:58	1	r.bold	39	2190	8
102513	11:58	1	r.penthouse	40	1980	8
102513	11:58	1	r.church	41	2155	9
102513	11:58	1	r.kettle	42	2530	5
102513	11:58	1	r.pride	43	2738	7
102513	11:58	1	r.leader	44	3404	8
102513	11:58	1	r.greet	45	1809	8
102513	11:58	1	r.offend	46	2094	2
102513	11:58	1	r.taste	47	2111	6
102513	11:58	1	r.brutal	48	1834	1
102513	11:58	1	r.banner	49	1781	7
102513	11:58	1	r.rattle	50	7867	3
102513	11:58	1	r.farm	51	2121	5
102513	11:58	1	r.murderer	52	1818	1
102513	11:58	1	r.nursery	53	1696	8
102513	11:58	1	r.addicted	54	1944	2
102513	11:58	1	r.disturb	55	1825	3
102513	11:58	1	r.hope	56	2038	9
102513	11:58	1	r.food	57	2601	5
102513	11:58	1	r.scream	58	1993	3
102513	11:58	1	r.reverent	59	2382	5
102513	11:58	1	r.power	60	2684	7
102513	11:58	1	f.yeesh	1	5437	7
102513	11:58	1	f.thake	2	6370	4
102513	11:58	1	f.kreege	3	1915	3
102513	11:58	1	f.kwoog	4	2435	5
102513	11:58	1	f.thood	5	2624	6
102513	11:58	1	f.thashe	6	2630	2
102513	11:58	1	f.smague	7	3499	3
102513	11:58	1	f.thweek	8	2988	7
102513	11:58	1	f.dwooge	9	2667	6
102513	11:58	1	f.spate	10	2302	4
102513	11:58	1	f.noosh	11	3984	2
102513	11:58	1	f.kwose	12	4848	5
102513	11:58	1	f.shreege	13	2870	4
102513	11:58	1	f.thwooch	14	3232	6
102513	11:58	1	f.plathe	15	2500	8
102513	11:58	1	f.smool	16	2431	7
102513	11:58	1	f.moob	17	2339	2
102513	11:58	1	f.sneem	18	4108	3
102513	11:58	1	f.twooth	19	3222	6
102513	11:58	1	f.prole	20	2491	3
102513	11:58	1	f.thoof	21	2117	4
102513	11:58	1	f.dweege	22	4214	2
102513	11:58	1	f.thwooth	23	3636	4
102513	11:58	1	f.yache	24	2554	6
102513	11:58	1	f.gweem	25	2353	9
102513	11:58	1	f.slare	26	2801	2
102513	11:58	1	f.chood	27	1816	6
102513	11:58	1	f.gwane	28	1724	5
102513	11:58	1	f.speeth	29	2830	5
102513	11:58	1	f.gwoose	30	2586	4
102513	11:58	1	f.shrane	31	2536	2
102513	11:58	1	f.threek	32	2289	7
102513	11:58	1	f.frothe	33	2860	2
102513	11:58	1	f.groob	34	2407	3
102513	11:58	1	f.plooth	35	1565	3
102513	11:58	1	f.grague	36	1811	3
102513	11:58	1	f.jote	37	1849	5
102513	11:58	1	f.bloshe	38	2229	8
102513	11:58	1	f.kroosh	39	2353	4
102513	11:58	1	f.zoove	40	3025	7
102513	11:58	1	f.shreep	41	2677	8
102513	11:58	1	f.snove	42	3001	5
102513	11:58	1	f.frache	43	1878	5
102513	11:58	1	f.throop	44	2640	4
102513	11:58	1	f.kreech	45	2644	2
102513	11:58	1	f.breesh	46	2519	2
102513	11:58	1	f.koog	47	1930	7
102513	11:58	1	f.dreeze	48	2771	6
102513	11:58	1	f.snafe	49	2602	9
102513	11:58	1	f.tweege	50	3807	5
102513	11:58	1	f.steeg	51	1405	5
102513	11:58	1	f.speeb	52	3651	4
102513	11:58	1	f.sneeb	53	3662	3
102513	11:58	1	f.kwove	54	1364	5
102513	11:58	1	f.snoosh	55	2249	4
102513	11:58	1	f.thwole	56	2500	3
102513	11:58	1	f.voge	57	1616	3
102513	11:58	1	f.bleeve	58	2421	6
102513	11:58	1	f.shroop	59	1658	6
102513	11:58	1	f.dreeg	60	1533	5
102513	11:58	1	howtype	1	16308	6
102513	12:19	1	speed	1	3032	62
102513	12:19	1	error	2	1892	100
102513	12:19	1	whichhand	3	9479	right
102513	12:19	1	f.shroof	1	18689	6
102513	12:19	1	f.gwathe	2	7216	4
102513	12:19	1	f.sleesh	3	6161	3
102513	12:19	1	f.yeege	4	6831	5
102513	12:19	1	f.kwoose	5	6911	7
102513	12:19	1	f.snage	6	5738	4
102513	12:19	1	f.pashe	7	3444	6
102513	12:19	1	f.thrathe	8	7558	5
102513	12:19	1	f.gweem	9	9057	5
102513	12:19	1	f.peeg	10	7941	4
102513	12:19	1	f.foog	11	7584	3
102513	12:19	1	f.shreer	12	4984	3
102513	12:19	1	f.preek	13	4472	5
102513	12:19	1	f.yeeve	14	4908	6
102513	12:19	1	f.gwache	15	4622	8
102513	12:19	1	f.thooch	16	4722	4
102513	12:19	1	f.skeeb	17	5198	5
102513	12:19	1	f.skeesh	18	5517	4
102513	12:19	1	f.yeen	19	4199	3
102513	12:19	1	f.jote	20	4245	7
102513	12:19	1	f.gwashe	21	6513	7
102513	12:19	1	f.sheech	22	5805	4
102513	12:19	1	f.foob	23	6027	5
102513	12:19	1	f.threem	24	10807	6
102513	12:19	1	f.swague	25	4546	6
102513	12:19	1	f.chade	26	7674	5
102513	12:19	1	f.yape	27	4758	3
102513	12:19	1	f.vome	28	8229	5
102513	12:19	1	f.sweeb	29	4901	7
102513	12:19	1	f.dreeze	30	8360	5
102513	12:19	1	f.zare	31	10041	2
102513	12:19	1	f.sloge	32	8152	3
102513	12:19	1	f.veeve	33	4009	7
102513	12:19	1	f.neeb	34	4167	5
102513	12:19	1	f.dreet	35	7599	6
102513	12:19	1	f.slabe	36	10047	5
102513	12:19	1	f.gache	37	5453	8
102513	12:19	1	f.snathe	38	5498	7
102513	12:19	1	f.theech	39	5861	4
102513	12:19	1	f.pame	40	4665	5
102513	12:19	1	f.fape	41	7438	4
102513	12:19	1	f.snose	42	10059	6
102513	12:19	1	f.plare	43	6106	7
102513	12:19	1	f.dwooge	44	4709	3
102513	12:19	1	f.snoge	45	4126	6
102513	12:19	1	f.thone	46	6687	7
102513	12:19	1	f.zook	47	5916	8
102513	12:19	1	f.smafe	48	11614	6
102513	12:19	1	f.stoose	49	4799	4
102513	12:19	1	f.jeeth	50	3558	2
102513	12:19	1	f.dweet	51	4453	7
102513	12:19	1	f.slage	52	3858	6
102513	12:19	1	f.blool	53	6390	1
102513	12:19	1	f.theeb	54	5502	3
102513	12:19	1	f.treeb	55	10921	4
102513	12:19	1	f.floche	56	3845	3
102513	12:19	1	f.tage	57	3496	5
102513	12:19	1	f.prathe	58	2428	5
102513	12:19	1	f.rashe	59	6065	7
102513	12:19	1	f.gweeb	60	4429	6
102513	12:19	1	r.malice	1	6311	7
102513	12:19	1	r.tank	2	4776	5
102513	12:19	1	r.gun	3	6184	5
102513	12:19	1	r.orgasm	4	5167	4
102513	12:19	1	r.crushed	5	5001	8
102513	12:19	1	r.abduction	6	3440	7
102513	12:19	1	r.square	7	3924	3
102513	12:19	1	r.derelict	8	5165	9
102513	12:19	1	r.gentle	9	3909	6
102513	12:19	1	r.python	10	7471	7
102513	12:19	1	r.fabric	11	4596	3
102513	12:19	1	r.menace	12	4411	8
102513	12:19	1	r.truth	13	3609	6
102513	12:19	1	r.sailboat	14	3702	7
102513	12:19	1	r.narcotic	15	7217	4
102513	12:19	1	r.activate	16	6471	5
102513	12:19	1	r.illness	17	4035	3
102513	12:19	1	r.life	18	6768	2
102513	12:19	1	r.mad	19	3418	1
102513	12:19	1	r.game	20	7215	3
102513	12:19	1	r.agreement	21	3511	5
102513	12:19	1	r.soft	22	3622	6
102513	12:19	1	r.mucus	23	5030	2
102513	12:19	1	r.demon	24	4011	3
102513	12:19	1	r.crutch	25	3479	2
102513	12:19	1	r.chocolate	26	3108	6
102513	12:19	1	r.excuse	27	3470	4
102513	12:19	1	r.eat	28	3593	5
102513	12:19	1	r.joy	29	5247	6
102513	12:19	1	r.couple	30	4269	7
102513	12:19	1	r.tomb	31	5160	4
102513	12:19	1	r.stiff	32	3617	3
102513	12:19	1	r.orchestra	33	3686	8
102513	12:19	1	r.pollute	34	4392	2
102513	12:19	1	r.part	35	4096	5
102513	12:19	1	r.hooker	36	6266	5
102513	12:19	1	r.vigorous	37	5750	7
102513	12:19	1	r.athletics	38	6279	9
102513	12:19	1	r.razor	39	4603	6
102513	12:19	1	r.masturbate	40	4914	4
102513	12:19	1	r.triumph	41	4284	8
102513	12:19	1	r.stench	42	3791	2
102513	12:19	1	r.festive	43	4285	6
102513	12:19	1	r.palace	44	3897	5
102513	12:19	1	r.lightbulb	45	3347	5
102513	12:19	1	r.mother	46	4932	9
102513	12:19	1	r.garter	47	8261	6
102513	12:19	1	r.arm	48	2858	5
102513	12:19	1	r.contempt	49	3798	6
102513	12:19	1	r.sunrise	50	3364	7
102513	12:19	1	r.smallpox	51	3836	2
102513	12:19	1	r.grin	52	3016	6
102513	12:19	1	r.humane	53	2902	5
102513	12:19	1	r.prairie	54	3448	5
102513	12:19	1	r.enraged	55	5005	6
102513	12:19	1	r.betray	56	3003	6
102513	12:19	1	r.field	57	3169	4
102513	12:19	1	r.heart	58	3137	5
102513	12:19	1	r.affection	59	3065	7
102513	12:19	1	r.cell	60	3492	4
102513	12:19	1	howtype	1	23950	6
102513	14:33	1	speed	1	2718	50
102513	14:33	1	error	2	2031	94
102513	14:33	1	whichhand	3	9196	right
102513	14:33	1	r.headlight	1	8030	5
102513	14:33	1	r.offend	2	6436	2
102513	14:33	1	r.paradise	3	2962	9
102513	14:33	1	r.urine	4	2779	1
102513	14:33	1	r.joy	5	3336	8
102513	14:33	1	r.icebox	6	2449	5
102513	14:33	1	r.stagnant	7	3381	3
102513	14:33	1	r.penalty	8	3476	3
102513	14:33	1	r.rude	9	1942	2
102513	14:33	1	r.weapon	10	5006	3
102513	14:33	1	r.advantage	11	2037	6
102513	14:33	1	r.insecure	12	3250	3
102513	14:33	1	r.stink	13	3302	3
102513	14:33	1	r.kids	14	2592	6
102513	14:33	1	r.hamburger	15	2078	6
102513	14:33	1	r.corrupt	16	4768	2
102513	14:33	1	r.evil	17	1297	1
102513	14:33	1	r.foot	18	3450	3
102513	14:33	1	r.loyal	19	3334	7
102513	14:33	1	r.queen	20	3647	6
102513	14:33	1	r.village	21	1844	5
102513	14:33	1	r.elevator	22	1672	5
102513	14:33	1	r.stress	23	3745	2
102513	14:33	1	r.volcano	24	3930	4
102513	14:33	1	r.fish	25	4956	4
102513	14:33	1	r.circle	26	1732	5
102513	14:33	1	r.torture	27	1541	1
102513	14:33	1	r.adventure	28	2581	7
102513	14:33	1	r.privacy	29	3452	5
102513	14:33	1	r.slave	30	5671	2
102513	14:33	1	r.finger	31	3868	5
102513	14:33	1	r.venom	32	2472	3
102513	14:33	1	r.fascinate	33	2891	8
102513	14:33	1	r.honey	34	1510	8
102513	14:33	1	r.green	35	2095	5
102513	14:33	1	r.rancid	36	4087	2
102513	14:33	1	r.malaria	37	8163	3
102513	14:33	1	r.friend	38	2901	8
102513	14:33	1	r.cow	39	3119	5
102513	14:33	1	r.disappoint	40	6152	2
102513	14:33	1	r.tree	41	3433	6
102513	14:33	1	r.toxic	42	5438	3
102513	14:33	1	r.rape	43	1764	1
102513	14:33	1	r.abortion	44	1491	1
102513	14:33	1	r.adorable	45	1749	8
102513	14:33	1	r.song	46	3861	7
102513	14:33	1	r.hungry	47	3912	4
102513	14:33	1	r.fragrance	48	3610	7
102513	14:33	1	r.pest	49	2376	3
102513	14:33	1	r.elegant	50	2502	8
102513	14:33	1	r.plane	51	2872	6
102513	14:33	1	r.utensil	52	5924	5
102513	14:33	1	r.fault	53	4550	3
102513	14:33	1	r.mold	54	2166	2
102513	14:33	1	r.startled	55	3438	4
102513	14:33	1	r.invader	56	6507	3
102513	14:33	1	r.candy	57	1878	7
102513	14:33	1	r.imagine	58	3456	8
102513	14:33	1	r.heroin	59	8916	2
102513	14:33	1	r.suicide	60	2136	1
102513	14:33	1	f.toge	1	4671	5
102513	14:33	1	f.vood	2	1939	4
102513	14:33	1	f.shrooth	3	2340	4
102513	14:33	1	f.dwose	4	2724	4
102513	14:33	1	f.threef	5	2846	6
102513	14:33	1	f.plake	6	1785	6
102513	14:33	1	f.stogue	7	2168	3
102513	14:33	1	f.dwoop	8	1719	3
102513	14:33	1	f.blole	9	4280	4
102513	14:33	1	f.dwoog	10	3019	3
102513	14:33	1	f.shreel	11	2785	7
102513	14:33	1	f.theeg	12	1727	7
102513	14:33	1	f.jeeth	13	1608	7
102513	14:33	1	f.nache	14	2477	6
102513	14:33	1	f.kwage	15	1704	6
102513	14:33	1	f.smague	16	2393	6
102513	14:33	1	f.skeese	17	1879	6
102513	14:33	1	f.smane	18	2090	6
102513	14:33	1	f.lashe	19	2716	2
102513	14:33	1	f.tave	20	6493	6
102513	14:33	1	f.gloshe	21	4041	6
102513	14:33	1	f.gweet	22	3166	8
102513	14:33	1	f.gwoof	23	2357	5
102513	14:33	1	f.sloosh	24	3404	6
102513	14:33	1	f.smeed	25	2324	7
102513	14:33	1	f.snafe	26	2525	3
102513	14:33	1	f.shroove	27	1822	3
102513	14:33	1	f.wothe	28	1627	3
102513	14:33	1	f.throom	29	2135	4
102513	14:33	1	f.krague	30	1535	5
102513	14:33	1	f.kleesh	31	2416	6
102513	14:33	1	f.noof	32	2301	5
102513	14:33	1	f.slool	33	2919	4
102513	14:33	1	f.thwafe	34	1664	4
102513	14:33	1	f.yoche	35	3243	3
102513	14:33	1	f.skase	36	2191	3
102513	14:33	1	f.sweese	37	3030	6
102513	14:33	1	f.snone	38	3147	5
102513	14:33	1	f.shrove	39	2706	5
102513	14:33	1	f.dreege	40	1709	6
102513	14:33	1	f.plook	41	3350	6
102513	14:33	1	f.teef	42	1991	4
102513	14:33	1	f.boshe	43	4397	4
102513	14:33	1	f.swathe	44	3092	5
102513	14:33	1	f.frope	45	5310	3
102513	14:33	1	f.gwache	46	2241	4
102513	14:33	1	f.thrave	47	2317	8
102513	14:33	1	f.froche	48	3726	5
102513	14:33	1	f.thwape	49	1991	2
102513	14:33	1	f.yope	50	2406	3
102513	14:33	1	f.spame	51	7515	4
102513	14:33	1	f.thoche	52	1710	4
102513	14:33	1	f.droche	53	2343	4
102513	14:33	1	f.stathe	54	2303	5
102513	14:33	1	f.froge	55	3497	7
102513	14:33	1	f.gwashe	56	2315	7
102513	14:33	1	f.ploor	57	2597	4
102513	14:33	1	f.gwate	58	4203	5
102513	14:33	1	f.smase	59	1825	5
102513	14:33	1	f.jeesh	60	2046	8
102513	14:33	1	howtype	1	9352	6
103013	12:11	1	speed	1	2567	52
103013	12:11	1	error	2	1359	100
103013	12:11	1	whichhand	3	5950	right
103013	12:11	1	r.pencil	1	34122	4
103013	12:11	1	r.dignified	2	4007	5
103013	12:11	1	r.crime	3	5533	5
103013	12:11	1	r.elegant	4	2183	6
103013	12:11	1	r.friendly	5	3174	7
103013	12:11	1	r.relaxed	6	2957	7
103013	12:11	1	r.nectar	7	3141	7
103013	12:11	1	r.scurvy	8	3470	5
103013	12:11	1	r.detached	9	2514	6
103013	12:11	1	r.mad	10	2563	6
103013	12:11	1	r.bird	11	3810	4
103013	12:11	1	r.desire	12	2135	6
103013	12:11	1	r.life	13	2968	6
103013	12:11	1	r.inspire	14	2864	6
103013	12:11	1	r.pie	15	2187	7
103013	12:11	1	r.sunrise	16	1881	7
103013	12:11	1	r.rough	17	2284	4
103013	12:11	1	r.fight	18	2006	5
103013	12:11	1	r.hay	19	3028	4
103013	12:11	1	r.shy	20	2601	4
103013	12:11	1	r.cute	21	2310	6
103013	12:11	1	r.doll	22	2384	4
103013	12:11	1	r.eat	23	2558	7
103013	12:11	1	r.moment	24	2838	5
103013	12:11	1	r.detest	25	2474	5
103013	12:11	1	r.crutch	26	2454	3
103013	12:11	1	r.pig	27	1922	4
103013	12:11	1	r.infant	28	2251	5
103013	12:11	1	r.anger	29	2463	4
103013	12:11	1	r.holiday	30	5808	5
103013	12:11	1	r.tender	31	4241	5
103013	12:11	1	r.storm	32	1846	6
103013	12:11	1	r.ridicule	33	2210	4
103013	12:11	1	r.bus	34	2063	5
103013	12:11	1	r.hat	35	1690	5
103013	12:11	1	r.lighthouse	36	2684	6
103013	12:11	1	r.kerchief	37	2910	5
103013	12:11	1	r.lake	38	3144	6
103013	12:11	1	r.progress	39	3288	6
103013	12:11	1	r.pain	40	2059	4
103013	12:11	1	r.bowl	41	3981	4
103013	15:33	1	speed	1	3135	32
103013	15:33	1	error	2	1740	93
103013	15:33	1	whichhand	3	10221	right
103013	15:33	1	r.patriot	1	5696	7
103013	15:33	1	r.wit	2	6468	4
103013	15:36	1	speed	1	2744	32
103013	15:36	1	error	2	1560	93
103013	15:36	1	whichhand	3	4712	right
103013	15:36	1	r.bench	1	4141	3
103013	15:36	1	r.depressed	2	3118	1
103013	15:36	1	r.noose	3	3663	2
103013	15:36	1	r.cat	4	2468	9
103013	15:36	1	r.inspired	5	2654	9
103013	15:36	1	r.demon	6	2402	3
103013	15:36	1	r.addicted	7	3304	5
103013	15:36	1	r.waterfall	8	1960	8
103013	15:36	1	r.puppy	9	4070	7
103013	15:36	1	r.odd	10	3538	4
103013	15:36	1	r.girl	11	2635	5
103013	15:36	1	r.inspire	12	2775	6
103013	15:36	1	r.useless	13	6805	4
103013	15:36	1	r.victory	14	3557	7
103013	15:36	1	r.opinion	15	3988	7
103013	15:36	1	r.sheltered	16	4171	8
103013	15:36	1	r.cancer	17	6012	6
103013	15:36	1	r.mucus	18	3275	6
103013	15:36	1	r.dove	19	4389	5
103013	15:36	1	r.ignorance	20	4156	4
103013	15:36	1	r.leisurely	21	4068	7
103013	15:36	1	r.loved	22	3336	3
103013	15:36	1	r.corrupt	23	4169	6
103013	15:36	1	r.disappoint	24	4690	4
103013	15:36	1	r.capable	25	5201	5
103013	15:36	1	r.swamp	26	2059	6
103013	15:36	1	r.idol	27	3246	4
103013	15:36	1	r.free	28	3306	7
103013	15:36	1	r.rape	29	5147	3
103013	15:36	1	r.tamper	30	3484	5
103013	15:36	1	r.ennui	31	2431	7
103013	15:36	1	r.bath	32	3691	6
103013	15:36	1	r.heroin	33	5975	5
103013	15:36	1	r.doll	34	2159	4
103013	15:36	1	r.war	35	2821	3
103013	15:36	1	r.sinful	36	2419	6
103013	15:36	1	r.journal	37	2855	3
103013	15:36	1	r.dress	38	4077	6
103013	15:36	1	r.door	39	2872	2
103013	15:36	1	r.revolver	40	2851	6
103013	15:36	1	r.art	41	3223	5
103013	15:36	1	r.seat	42	1205	4
103013	15:36	1	r.discouraged	43	2666	3
103013	15:36	1	r.street	44	1709	7
103013	15:36	1	r.overwhelmed	45	2214	6
103013	15:36	1	r.execution	46	2435	3
103013	15:36	1	r.pasta	47	1864	6
103013	15:36	1	r.limber	48	2795	5
103013	15:36	1	r.suspicious	49	1713	7
103013	15:36	1	r.city	50	4826	5
103013	15:36	1	r.silly	51	2255	6
103013	15:36	1	r.fantasy	52	2499	8
103013	15:36	1	r.hostage	53	2221	7
103013	15:36	1	r.finger	54	2746	5
103013	15:36	1	r.triumph	55	3562	6
103013	15:36	1	r.fear	56	3154	3
103013	15:36	1	r.nonsense	57	2585	1
103013	15:36	1	r.mighty	58	4335	6
103013	15:36	1	r.pain	59	2858	6
103013	15:36	1	r.ecstasy	60	2278	7
103013	15:36	1	f.kwogue	1	8448	6
103013	15:36	1	f.klooch	2	3284	4
103013	15:36	1	f.preek	3	2328	5
103013	15:36	1	f.smope	4	3465	7
103013	15:36	1	f.jeeg	5	2364	6
103013	15:36	1	f.gwoor	6	2132	3
103013	15:36	1	f.shrare	7	2844	2
103013	15:36	1	f.pleep	8	2295	9
103013	15:36	1	f.twoge	9	2074	3
103013	15:36	1	f.smame	10	2492	2
103013	15:36	1	f.zafe	11	3446	6
103013	15:36	1	f.poog	12	1955	9
103013	15:36	1	f.deech	13	2747	2
103013	15:36	1	f.thwose	14	2462	7
103013	15:36	1	f.foog	15	3037	5
103013	15:36	1	f.chale	16	3235	5
103013	15:36	1	f.zook	17	1984	4
103013	15:36	1	f.kwooze	18	3398	4
103013	15:36	1	f.noge	19	2883	6
103013	15:36	1	f.sweef	20	1975	7
103013	15:36	1	f.tweege	21	2878	6
103013	15:36	1	f.drooge	22	3225	3
103013	15:36	1	f.tashe	23	2758	6
103013	15:36	1	f.krache	24	2902	9
103013	15:36	1	f.krothe	25	2054	3
103013	15:36	1	f.swoze	26	2571	5
103013	15:36	1	f.thake	27	1571	4
103013	15:36	1	f.skome	28	2746	7
103013	15:36	1	f.thweer	29	2785	6
103013	15:36	1	f.krashe	30	3777	4
103013	15:36	1	f.yoose	31	5216	7
103013	15:36	1	f.snabe	32	2964	4
103013	15:36	1	f.fafe	33	3348	6
103013	15:36	1	f.thweem	34	2437	9
103013	15:36	1	f.spogue	35	3267	4
103013	15:36	1	f.preesh	36	2421	8
103013	15:36	1	f.gweech	37	2746	6
103013	15:36	1	f.krooth	38	1826	4
103013	15:36	1	f.freech	39	2295	7
103013	15:36	1	f.sleesh	40	3742	8
103013	15:36	1	f.zooch	41	2640	4
103013	15:36	1	f.twoosh	42	2310	6
103013	15:36	1	f.zeeg	43	1559	4
103013	15:36	1	f.sneed	44	1638	6
103013	15:36	1	f.gooch	45	2243	8
103013	15:36	1	f.dague	46	1294	6
103013	15:36	1	f.floshe	47	1384	7
103013	15:36	1	f.snoose	48	1542	4
103013	15:36	1	f.sweese	49	1670	3
103013	15:36	1	f.tweel	50	1665	7
103013	15:36	1	f.glashe	51	1668	4
103013	15:36	1	f.grague	52	2006	4
103013	15:36	1	f.shoge	53	1989	5
103013	15:36	1	f.spote	54	1979	8
103013	15:36	1	f.snoog	55	2393	7
103013	15:36	1	f.trogue	56	3296	6
103013	15:36	1	f.bleel	57	2010	4
103013	15:36	1	f.doog	58	2366	7
103013	15:36	1	f.gwote	59	2381	4
103013	15:36	1	f.theef	60	2357	4
103013	15:36	1	howtype	1	7331	2
