date	time	subject	trialcode	trialnum	latency	response
102413	13:32	1	speed	1	2944	53
102413	13:32	1	error	2	1880	96
102413	13:32	1	whichhand	3	6842	right
102413	13:32	1	f.skeesh	1	8109	3
102413	13:32	1	f.frogue	2	2152	3
102413	13:32	1	f.smeen	3	2464	4
102413	13:32	1	f.dwoom	4	3539	5
102413	13:32	1	f.twobe	5	2132	2
102413	13:32	1	f.seeg	6	2252	4
102413	13:32	1	f.dwafe	7	3303	4
102413	13:32	1	f.shreep	8	2338	3
102413	13:32	1	f.spoog	9	2211	6
102413	13:32	1	f.proshe	10	2024	5
102413	13:32	1	f.ploke	11	1924	6
102413	13:32	1	f.twove	12	2030	5
102413	13:32	1	f.feef	13	1978	4
102413	13:32	1	f.dwogue	14	1648	4
102413	13:32	1	f.foop	15	2380	5
102413	13:32	1	f.thwabe	16	1690	4
102413	13:32	1	f.shreege	17	1629	4
102413	13:32	1	f.smague	18	2761	4
102413	13:32	1	f.skeeg	19	1440	4
102413	13:32	1	f.smothe	20	1388	4
102413	13:32	1	f.nothe	21	1555	2
102413	13:32	1	f.zeet	22	1554	2
102413	13:32	1	f.deeg	23	1233	2
102413	13:32	1	f.fobe	24	1269	3
102413	13:32	1	f.preege	25	1176	3
102413	13:32	1	f.yeeze	26	3134	6
102413	13:32	1	f.flove	27	3871	7
102413	13:32	1	f.snoge	28	1403	4
102413	13:32	1	f.bleeve	29	1784	4
102413	13:32	1	f.thone	30	2599	5
102413	13:32	1	f.vame	31	1349	4
102413	13:32	1	f.sashe	32	2076	6
102413	13:32	1	f.koob	33	2591	3
102413	13:32	1	f.glole	34	1405	3
102413	13:32	1	f.snogue	35	1931	3
102413	13:32	1	f.swogue	36	1139	3
102413	13:32	1	f.drare	37	1075	3
102413	13:32	1	f.chool	38	870	3
102413	13:32	1	f.pleel	39	945	3
102413	13:32	1	f.swage	40	984	2
102413	13:32	1	f.brabe	41	1326	4
102413	13:32	1	f.dweege	42	2647	3
102413	13:32	1	f.skame	43	3986	4
102413	13:32	1	f.shrache	44	1665	4
102413	13:32	1	f.zathe	45	2692	3
102413	13:32	1	f.zabe	46	798	3
102413	13:32	1	f.dwaze	47	1611	2
102413	13:32	1	f.dwoog	48	1280	3
102413	13:32	1	f.krache	49	1363	4
102413	13:32	1	f.vove	50	1145	4
102413	13:32	1	f.snathe	51	1217	5
102413	13:32	1	f.smoon	52	588	6
102413	13:32	1	f.flache	53	1963	5
102413	13:32	1	f.skoosh	54	2490	6
102413	13:32	1	f.drogue	55	1573	4
102413	13:32	1	f.keeg	56	2372	3
102413	13:32	1	f.poom	57	1459	5
102413	13:32	1	f.shraze	58	1166	4
102413	13:32	1	f.flage	59	645	4
102413	13:32	1	f.troom	60	1408	5
102413	13:32	1	r.bright	1	9267	7
102413	13:32	1	r.defeated	2	2004	3
102413	13:32	1	r.memory	3	1799	7
102413	13:32	1	r.intimate	4	1612	8
102413	13:32	1	r.freedom	5	1649	9
102413	13:32	1	r.blind	6	2149	1
102413	13:32	1	r.spider	7	1252	2
102413	13:32	1	r.elbow	8	2616	5
102413	13:32	1	r.adult	9	1909	6
102413	13:32	1	r.gangrene	10	2271	1
102413	13:32	1	r.warmth	11	2066	9
102413	13:32	1	r.garden	12	2285	8
102413	13:32	1	r.manure	13	2151	2
102413	13:32	1	r.stupid	14	1919	3
102413	13:32	1	r.dustpan	15	1944	3
102413	13:32	1	r.urine	16	1824	2
102413	13:32	1	r.syphilis	17	1973	1
102413	13:32	1	r.pizza	18	1676	9
102413	13:32	1	r.music	19	1582	9
102413	13:32	1	r.hard	20	1869	3
102413	13:32	1	r.air	21	3024	7
102413	13:32	1	r.history	22	2830	4
102413	13:32	1	r.market	23	1490	5
102413	13:32	1	r.paradise	24	1684	9
102413	13:32	1	r.embattled	25	2494	4
102413	13:32	1	r.church	26	2856	9
102413	13:32	1	r.bullet	27	2124	3
102413	13:32	1	r.useful	28	2853	7
102413	13:32	1	r.discomfort	29	1585	3
102413	13:32	1	r.leprosy	30	1831	1
102413	13:32	1	r.whistle	31	2491	6
102413	13:32	1	r.lightning	32	1718	8
102413	13:32	1	r.measles	33	1791	3
102413	13:32	1	r.ambition	34	3213	7
102413	13:32	1	r.name	35	1850	5
102413	13:32	1	r.man	36	4294	8
102413	13:32	1	r.slow	37	1385	4
102413	13:32	1	r.glacier	38	3503	5
102413	13:32	1	r.hairpin	39	945	5
102413	13:32	1	r.mind	40	1432	5
102413	13:32	1	r.nervous	41	1212	4
102413	13:32	1	r.swamp	42	1081	4
102413	13:32	1	r.bus	43	1843	5
102413	13:32	1	r.massacre	44	2007	1
102413	13:32	1	r.luxury	45	1564	9
102413	13:32	1	r.hungry	46	2795	3
102413	13:32	1	r.saint	47	3289	6
102413	13:32	1	r.bake	48	2211	7
102413	13:32	1	r.wicked	49	3208	2
102413	13:32	1	r.time	50	2310	5
102413	13:32	1	r.hardship	51	3063	2
102413	13:32	1	r.smooth	52	2394	6
102413	13:32	1	r.mighty	53	1840	7
102413	13:32	1	r.tease	54	6148	5
102413	13:32	1	r.caress	55	1453	6
102413	13:32	1	r.athletics	56	2353	8
102413	13:32	1	r.whore	57	1833	2
102413	13:32	1	r.bath	58	3949	7
102413	13:32	1	r.jelly	59	2645	6
102413	13:32	1	r.obscene	60	2105	1
102413	13:32	1	howtype	1	8410	6
102513	12:00	1	speed	1	2592	32
102513	12:00	1	error	2	2231	100
102513	12:00	1	whichhand	3	7310	left
102513	12:00	1	r.metal	1	14553	4
102513	12:00	1	r.sunset	2	4022	9
102513	12:00	1	r.family	3	2596	9
102513	12:00	1	r.wish	4	2706	8
102513	12:00	1	r.respect	5	3003	8
102513	12:00	1	r.cockroach	6	2664	3
102513	12:00	1	r.vanity	7	3308	6
102513	12:00	1	r.awed	8	3526	7
102513	12:00	1	r.vigorous	9	3582	5
102513	12:00	1	r.art	10	2525	9
102513	12:00	1	r.moody	11	2510	3
102513	12:00	1	r.elbow	12	3762	5
102513	12:00	1	r.grenade	13	2222	1
102513	12:00	1	r.distressed	14	1540	1
102513	12:00	1	r.vehicle	15	4932	5
102513	12:00	1	r.affection	16	2286	8
102513	12:00	1	r.refreshment	17	2183	9
102513	12:00	1	r.muscular	18	1759	9
102513	12:00	1	r.hug	19	1574	9
102513	12:00	1	r.sad	20	1589	1
102513	12:00	1	r.mountain	21	2139	5
102513	12:00	1	r.owl	22	1484	5
102513	12:00	1	r.haphazard	23	4198	2
102513	12:00	1	r.tamper	24	1956	3
102513	12:00	1	r.moment	25	2148	5
102513	12:00	1	r.blasphemy	26	2244	3
102513	12:00	1	r.tender	27	4543	5
102513	12:00	1	r.journal	28	2344	5
102513	12:00	1	r.pus	29	1872	1
102513	12:00	1	r.grass	30	1611	5
102513	12:00	1	r.busybody	31	4223	4
102513	12:00	1	r.merry	32	1816	9
102513	12:00	1	r.rancid	33	1594	2
102513	12:00	1	r.syphilis	34	1672	1
102513	12:00	1	r.dancer	35	1769	9
102513	12:00	1	r.disappoint	36	1282	1
102513	12:00	1	r.crash	37	1115	1
102513	12:00	1	r.money	38	4308	7
102513	12:00	1	r.insecure	39	1806	1
102513	12:00	1	r.infatuation	40	3036	7
102513	12:00	1	r.bride	41	2064	9
102513	12:00	1	r.context	42	2235	5
102513	12:00	1	r.farm	43	1928	9
102513	12:00	1	r.boy	44	2464	5
102513	12:00	1	r.fork	45	1282	5
102513	12:00	1	r.idol	46	4668	5
102513	12:00	1	r.snuggle	47	2335	9
102513	12:00	1	r.nude	48	3785	6
102513	12:00	1	r.vacation	49	1743	9
102513	12:00	1	r.embarrassed	50	2015	3
102513	12:00	1	r.child	51	1555	9
102513	12:00	1	r.justice	52	1484	9
102513	12:00	1	r.scissors	53	1902	5
102513	12:00	1	r.storm	54	1751	2
102513	12:00	1	r.blossom	55	1327	9
102513	12:00	1	r.cord	56	2079	5
102513	12:00	1	r.custom	57	4882	5
102513	12:00	1	r.honor	58	3165	9
102513	12:00	1	r.resent	59	2732	3
102513	12:00	1	r.lantern	60	2685	5
102513	12:00	1	f.slose	1	4618	5
102513	12:00	1	f.steesh	2	3904	3
102513	12:00	1	f.twole	3	6298	7
102513	12:00	1	f.thwade	4	3413	8
102513	12:00	1	f.glashe	5	2026	2
102513	12:00	1	f.twool	6	4663	5
102513	12:00	1	f.loosh	7	3802	2
102513	12:00	1	f.gwase	8	6440	2
102513	12:00	1	f.joshe	9	3837	8
102513	12:00	1	f.speesh	10	5954	9
102513	12:00	1	f.draze	11	1883	9
102513	12:00	1	f.shreech	12	1301	8
102513	12:00	1	f.speet	13	2902	3
102513	12:00	1	f.jeesh	14	3625	9
102513	12:00	1	f.nabe	15	1086	3
102513	12:00	1	f.zoge	16	793	8
102513	12:00	1	f.jote	17	2150	3
102513	12:00	1	f.plashe	18	1358	5
102513	12:00	1	f.gweel	19	1494	5
102513	12:00	1	f.shose	20	815	2
102513	12:00	1	f.slofe	21	2300	8
102513	12:00	1	f.kwoche	22	4328	1
102513	12:00	1	f.frobe	23	2431	9
102513	12:00	1	f.shrane	24	1323	5
102513	12:00	1	f.shroze	25	1095	5
102513	12:00	1	f.veege	26	2189	7
102513	12:00	1	f.thwope	27	1843	2
102513	12:00	1	f.steech	28	4222	6
102513	12:00	1	f.krashe	29	1484	3
102513	12:00	1	f.thwache	30	4255	8
102513	12:00	1	f.yane	31	2027	4
102513	12:00	1	f.slogue	32	4911	2
102513	12:00	1	f.threeth	33	3737	6
102513	12:00	1	f.noob	34	2394	7
102513	12:00	1	f.chooge	35	2104	2
102513	12:00	1	f.thwashe	36	2185	7
102513	12:00	1	f.wathe	37	2024	2
102513	12:00	1	f.smeel	38	2174	2
102513	12:00	1	f.thwothe	39	1380	3
102513	12:00	1	f.thrathe	40	1162	4
102513	12:00	1	f.joot	41	1537	2
102513	12:00	1	f.dwoog	42	2809	6
102513	12:00	1	f.shrooze	43	1215	5
102513	12:00	1	f.gwoose	44	3123	7
102513	12:00	1	f.dweech	45	1621	2
102513	12:00	1	f.slore	46	2258	1
102513	12:00	1	f.brathe	47	1869	1
102513	12:00	1	f.thwogue	48	1512	1
102513	12:00	1	f.feech	49	1208	1
102513	12:00	1	f.chague	50	1390	7
102513	12:00	1	f.veesh	51	2136	2
102513	12:00	1	f.kloog	52	1876	3
102513	12:00	1	f.cheed	53	1196	4
102513	12:00	1	f.flague	54	1025	3
102513	12:00	1	f.jogue	55	656	7
102513	12:00	1	f.zeeth	56	924	7
102513	12:00	1	f.smeege	57	739	7
102513	12:00	1	f.skook	58	548	6
102513	12:00	1	f.dwoshe	59	1387	9
102513	12:00	1	f.gloshe	60	1345	2
102513	12:00	1	howtype	1	17271	5
102513	12:30	1	speed	1	2612	48
102513	12:30	1	error	2	2073	91
102513	12:30	1	whichhand	3	7845	right
102513	12:30	1	r.acceptance	1	8521	8
102513	12:30	1	r.dummy	2	2756	1
102513	12:30	1	r.termite	3	5252	4
102513	12:30	1	r.building	4	4545	7
102513	12:30	1	r.wink	5	3897	9
102513	12:30	1	r.bar	6	5171	5
102513	12:30	1	r.rabbit	7	5427	7
102513	12:30	1	r.easy	8	2945	8
102513	12:30	1	r.hell	9	2025	1
102513	12:30	1	r.sexy	10	2758	6
102513	12:30	1	r.market	11	2702	5
102513	12:30	1	r.knowledge	12	2296	9
102513	12:30	1	r.breeze	13	2793	5
102513	12:30	1	r.game	14	4927	5
102513	12:30	1	r.damage	15	3424	1
102513	12:30	1	r.optimism	16	6861	5
102513	12:30	1	r.tamper	17	1610	1
102513	12:30	1	r.lice	18	1663	1
102513	12:30	1	r.intimate	19	2602	8
102513	12:30	1	r.messy	20	2944	3
102513	12:30	1	r.deceit	21	3592	5
102513	12:30	1	r.perfume	22	2302	9
102513	12:30	1	r.madman	23	2232	3
102513	12:30	1	r.scar	24	1997	4
102513	12:30	1	r.agreement	25	1794	9
102513	12:30	1	r.salad	26	2632	8
102513	12:30	1	r.gossip	27	1428	1
102513	12:30	1	r.scornful	28	1289	1
102513	12:30	1	r.spanking	29	1107	1
102513	12:30	1	r.mail	30	1356	9
102513	12:30	1	r.comfort	31	1476	9
102513	12:30	1	r.triumph	32	2030	7
102513	12:30	1	r.victim	33	1747	2
102513	12:30	1	r.stupid	34	1138	1
102513	12:30	1	r.gripe	35	3058	5
102513	12:30	1	r.father	36	3846	9
102513	12:30	1	r.sunrise	37	1546	9
102513	12:30	1	r.nuisance	38	2914	8
102513	12:30	1	r.alcoholic	39	1436	9
102513	12:30	1	r.insult	40	1283	9
102513	12:30	1	r.windmill	41	9698	9
102513	12:30	1	r.soothe	42	1622	9
102513	12:30	1	r.nourish	43	2403	5
102513	12:30	1	r.corpse	44	1872	1
102513	12:30	1	r.door	45	5932	3
102513	12:30	1	r.black	46	2325	5
102513	12:30	1	r.garden	47	1567	9
102513	12:30	1	r.industry	48	6357	6
102513	12:30	1	r.bottle	49	4894	6
102513	12:30	1	r.idiot	50	1681	1
102513	12:37	1	speed	1	3183	48
102513	12:37	1	error	2	1721	91
102513	12:37	1	whichhand	3	6211	right
102513	12:37	1	f.flooth	1	3006	5
102513	12:37	1	f.speeve	2	3844	4
102513	12:37	1	f.fache	3	3600	5
102513	12:37	1	f.grashe	4	4374	4
102513	12:37	1	f.shoob	5	4470	3
102513	12:37	1	f.sname	6	2738	5
102513	12:37	1	f.yafe	7	2106	5
102513	12:37	1	f.jame	8	4876	5
102513	12:37	1	f.fobe	9	2616	6
102513	12:37	1	f.zache	10	4061	5
102513	12:37	1	f.kloog	11	1032	5
102513	12:37	1	f.fape	12	1206	6
102513	12:37	1	f.droor	13	2529	6
102513	12:37	1	f.dwore	14	2402	6
102513	12:37	1	f.weeg	15	2006	7
102513	12:37	1	f.twave	16	2796	4
102513	12:37	1	f.vope	17	1282	6
102513	12:37	1	f.yone	18	4716	2
102513	12:37	1	f.trafe	19	2654	4
102513	12:37	1	f.smofe	20	1442	3
102513	12:37	1	f.gwoor	21	2230	2
102513	12:37	1	f.gwate	22	2482	7
102513	12:37	1	f.deef	23	1965	2
102513	12:37	1	f.drood	24	2092	2
102513	12:37	1	f.theeve	25	2542	1
102513	12:37	1	f.fleeb	26	1544	2
102513	12:37	1	f.chobe	27	2310	2
102513	12:37	1	f.tweeth	28	2559	7
102513	12:37	1	f.kwave	29	1919	7
102513	12:37	1	f.speeb	30	1359	5
102513	12:37	1	f.pleel	31	1613	4
102513	12:37	1	f.boosh	32	2034	5
102513	12:37	1	f.moob	33	2607	1
102513	12:37	1	f.zook	34	1277	2
102513	12:37	1	f.drooth	35	1447	4
102513	12:37	1	f.snoom	36	1674	6
102513	12:37	1	f.yage	37	917	7
102513	12:37	1	f.blooge	38	1997	4
102513	12:37	1	f.slool	39	1051	5
102513	12:37	1	f.jeef	40	2726	3
102513	12:37	1	f.slood	41	1341	4
102513	12:37	1	f.shrathe	42	2126	7
102513	12:37	1	f.theek	43	1974	3
102513	12:37	1	f.dwode	44	1862	5
102513	12:37	1	f.flathe	45	1497	4
102513	12:37	1	f.droot	46	1658	3
102513	12:37	1	f.treege	47	1233	7
102513	12:37	1	f.groge	48	1448	5
102513	12:37	1	f.twooth	49	1019	6
102513	12:37	1	f.thwood	50	2919	6
102513	12:37	1	f.shooch	51	1306	6
102513	12:37	1	f.gweed	52	1476	7
102513	12:37	1	f.breer	53	2470	5
102513	12:37	1	f.shrage	54	1225	6
102513	12:37	1	f.dreege	55	1342	4
102513	12:37	1	f.noob	56	1926	2
102513	12:37	1	f.gweese	57	3111	2
102513	12:37	1	f.thwoose	58	1632	7
102513	12:37	1	f.jeet	59	1140	8
102513	12:37	1	f.throde	60	1852	3
102513	12:37	1	r.passage	1	9758	8
102513	12:37	1	r.savior	2	2263	8
102513	12:37	1	r.heal	3	2834	2
102513	12:37	1	r.coast	4	2527	5
102513	12:37	1	r.obsession	5	2392	8
102513	12:37	1	r.impressed	6	1549	9
102513	12:37	1	r.muscular	7	1214	9
102513	12:37	1	r.sleep	8	1081	9
102513	12:37	1	r.taxi	9	3196	6
102513	12:37	1	r.dinner	10	2106	9
102513	12:37	1	r.lighthouse	11	2076	7
102513	12:37	1	r.champ	12	3046	9
102513	12:37	1	r.prison	13	1507	1
102513	12:37	1	r.nervous	14	1284	1
102513	12:37	1	r.solemn	15	1782	5
102513	12:37	1	r.volcano	16	1316	1
102513	12:37	1	r.gripe	17	2053	2
102513	12:37	1	r.sexy	18	1777	8
102513	12:37	1	r.cemetery	19	1239	1
102513	12:37	1	r.thorn	20	1123	1
102513	12:37	1	r.vanity	21	1908	4
102513	12:37	1	r.confident	22	1950	7
102513	12:37	1	r.helpless	23	3317	1
102513	12:37	1	r.tumor	24	1167	1
102513	12:37	1	r.hospital	25	2469	5
102513	12:37	1	r.hungry	26	1913	1
102513	12:37	1	r.strong	27	3673	9
102513	12:37	1	r.mutilate	28	3301	5
102513	12:37	1	r.option	29	1903	8
102513	12:37	1	r.cat	30	2417	5
102513	12:37	1	r.activate	31	2077	5
102513	12:37	1	r.slave	32	1328	1
102513	12:37	1	r.loser	33	921	1
102513	12:37	1	r.scream	34	945	1
102513	12:37	1	r.mountain	35	2009	7
102513	12:37	1	r.pollute	36	3678	1
102513	12:37	1	r.excuse	37	4361	5
102513	12:37	1	r.tidy	38	2257	5
102513	12:37	1	r.nourish	39	4509	5
102513	12:37	1	r.weary	40	1518	5
102513	12:37	1	r.famous	41	3127	9
102513	12:37	1	r.kettle	42	3856	9
102513	12:37	1	r.starving	43	1892	1
102513	12:37	1	r.barrel	44	3023	5
102513	12:37	1	r.bunny	45	2228	7
102513	12:37	1	r.vacation	46	2344	9
102513	12:37	1	r.overcast	47	1320	1
102513	12:37	1	r.vagina	48	1041	1
102513	12:37	1	r.nursery	49	4173	8
102513	12:37	1	r.revolver	50	1405	5
102513	12:37	1	r.impotent	51	1370	5
102513	12:37	1	r.surprised	52	1577	9
102513	12:37	1	r.pest	53	1303	1
102513	12:37	1	r.mind	54	2792	5
102513	12:37	1	r.journal	55	3358	8
102513	12:37	1	r.luxury	56	1343	9
102513	12:37	1	r.horror	57	2287	1
102513	12:37	1	r.delight	58	2009	5
102513	12:37	1	r.pizza	59	1063	9
102513	12:37	1	r.brutal	60	1241	1
102513	12:37	1	howtype	1	6556	6
102513	12:57	1	speed	1	2707	52
102513	12:57	1	error	2	2142	94
102513	12:57	1	whichhand	3	9151	left
102513	12:57	1	f.kabe	1	7771	5
102513	12:57	1	f.zove	2	3740	5
102513	12:57	1	f.weeth	3	1443	5
102513	12:57	1	f.twathe	4	1111	5
102513	12:57	1	f.zoof	5	824	5
102513	12:57	1	f.gweer	6	2700	5
102513	12:57	1	f.veeve	7	811	5
102513	12:57	1	f.shrooze	8	995	5
102513	12:57	1	f.ploke	9	1088	5
102513	12:57	1	f.twove	10	978	5
102513	12:57	1	f.gloche	11	1168	5
102513	12:57	1	f.smobe	12	919	5
102513	12:57	1	f.shroshe	13	3264	5
102513	12:57	1	f.zeeb	14	1227	5
102513	12:57	1	f.vave	15	751	5
102513	12:57	1	f.gloshe	16	742	5
102513	12:57	1	f.prate	17	958	5
102513	12:57	1	f.kwabe	18	2533	5
102513	12:57	1	f.smose	19	925	5
102513	12:57	1	f.stofe	20	998	5
102513	12:57	1	f.throor	21	1051	5
102513	12:57	1	f.frafe	22	839	5
102513	12:57	1	f.sneed	23	899	5
102513	12:57	1	f.dreeze	24	868	5
102513	12:57	1	f.gwoom	25	1382	5
102513	12:57	1	f.bloove	26	2765	5
102513	12:57	1	f.ploove	27	700	5
102513	12:57	1	f.gwane	28	669	5
102513	12:57	1	f.floop	29	912	5
102513	12:57	1	f.thage	30	697	5
102513	12:57	1	f.vobe	31	722	5
102513	12:57	1	f.plale	32	634	5
102513	12:57	1	f.thwove	33	598	5
102513	12:57	1	f.speeb	34	388	5
102513	12:57	1	f.grashe	35	396	5
102513	12:57	1	f.dwose	36	607	5
102513	12:57	1	f.thwase	37	684	5
102513	12:57	1	f.kweech	38	598	5
102513	12:57	1	f.drooch	39	402	5
102513	12:57	1	f.smeel	40	543	5
102513	12:57	1	f.theesh	41	479	5
102513	12:57	1	f.dweeve	42	456	5
102513	12:57	1	f.gleech	43	404	5
102513	12:57	1	f.shrame	44	1017	5
102513	12:57	1	f.gwoot	45	974	5
102513	12:57	1	f.smeef	46	700	5
102513	12:57	1	f.snothe	47	1533	5
102513	12:57	1	f.theeg	48	822	5
102513	12:57	1	f.shreep	49	499	5
102513	12:57	1	f.frope	50	443	5
102513	12:57	1	f.vame	51	455	5
102513	12:57	1	f.glase	52	346	5
102513	12:57	1	f.drage	53	1105	5
102513	12:57	1	f.preeth	54	914	5
102513	12:57	1	f.foop	55	467	5
102513	12:57	1	f.meeth	56	861	5
102513	12:57	1	f.trooch	57	368	5
102513	12:57	1	f.treef	58	447	5
102513	12:57	1	f.grache	59	442	5
102513	12:57	1	f.spate	60	365	5
102513	12:57	1	r.rattle	1	3386	5
102513	12:57	1	r.dreary	2	6649	5
102513	12:57	1	r.sky	3	2766	9
102513	12:57	1	r.honor	4	1813	9
102513	12:57	1	r.scornful	5	4531	1
102513	12:57	1	r.fantasy	6	2442	5
102513	12:57	1	r.golfer	7	2199	9
102513	12:57	1	r.razor	8	1748	9
102513	12:57	1	r.graduate	9	1051	9
102513	12:57	1	r.robber	10	1702	1
102513	12:57	1	r.vampire	11	1696	1
102513	12:57	1	r.knife	12	1657	5
102513	12:57	1	r.column	13	2549	5
102513	12:57	1	r.travel	14	1229	9
102513	12:57	1	r.melody	15	1417	9
102513	12:57	1	r.hope	16	2478	9
102513	12:57	1	r.measles	17	1240	1
102513	12:57	1	r.lamp	18	1340	5
102513	12:57	1	r.demon	19	1084	1
102513	12:57	1	r.war	20	1774	1
102513	12:57	1	r.air	21	1237	9
102513	12:57	1	r.noisy	22	1361	9
102513	12:57	1	r.beautiful	23	1040	9
102513	12:57	1	r.interest	24	3244	9
102513	12:57	1	r.kerosene	25	1152	9
102513	12:57	1	r.ecstasy	26	2328	5
102513	12:57	1	r.gender	27	1504	5
102513	12:57	1	r.honey	28	1426	5
102513	12:57	1	r.carcass	29	534	5
102513	12:57	1	r.earth	30	1310	5
102513	12:57	1	r.beast	31	1687	5
102513	12:57	1	r.fun	32	1081	9
102513	12:57	1	r.bird	33	1987	5
102513	12:57	1	r.grateful	34	1305	9
102513	12:57	1	r.lesbian	35	1203	1
102513	12:57	1	r.gloom	36	1368	5
102513	12:57	1	r.virtue	37	823	5
102513	12:57	1	r.victory	38	883	9
102513	12:57	1	r.snow	39	916	9
102513	12:57	1	r.confident	40	949	9
102513	12:57	1	r.consoled	41	844	5
102513	12:57	1	r.patient	42	1191	9
102513	12:57	1	r.cockroach	43	1198	9
102513	12:57	1	r.paper	44	651	9
102513	12:57	1	r.inspired	45	782	9
102513	12:57	1	r.headache	46	723	9
102513	12:57	1	r.terrorist	47	2764	1
102513	12:57	1	r.fragrance	48	1195	5
102513	12:57	1	r.fungus	49	913	1
102513	12:57	1	r.misery	50	729	1
102513	12:57	1	r.stiff	51	1314	1
102513	12:57	1	r.game	52	1538	9
102513	12:57	1	r.hooker	53	1026	1
102513	12:57	1	r.shark	54	1526	5
102513	12:57	1	r.moment	55	726	5
102513	12:57	1	r.weary	56	518	5
102513	12:57	1	r.python	57	783	5
102513	12:57	1	r.tumor	58	1733	1
102513	12:57	1	r.girl	59	861	1
102513	12:57	1	r.delight	60	3296	9
102513	12:57	1	howtype	1	10015	7
102513	14:08	1	speed	1	2627	41
102513	14:08	1	error	2	1657	95
102513	14:08	1	whichhand	3	6845	right
102513	14:08	1	f.frage	1	10748	3
102513	14:08	1	f.bloge	2	5063	4
102513	14:08	1	f.drote	3	3299	4
102513	14:08	1	f.thween	4	4501	5
102513	14:08	1	f.kwade	5	3752	4
102513	14:08	1	f.thwase	6	4936	5
102513	14:08	1	f.shrogue	7	3681	4
102513	14:08	1	f.mathe	8	4924	6
102513	14:08	1	f.beesh	9	7558	5
102513	14:08	1	f.shrane	10	5127	4
102513	14:08	1	f.dwothe	11	6951	4
102513	14:08	1	f.dwake	12	3752	5
102513	14:08	1	f.twofe	13	5008	5
102513	14:08	1	f.boove	14	2958	5
102513	14:08	1	f.joot	15	2910	6
102513	14:08	1	f.yafe	16	3327	7
102513	14:08	1	f.smeese	17	4071	5
102513	14:08	1	f.slase	18	4530	6
102513	14:08	1	f.sleef	19	3572	6
102513	14:08	1	f.trague	20	3795	4
102513	14:08	1	f.thashe	21	3009	5
102513	14:08	1	f.sashe	22	4518	5
102513	14:08	1	f.theef	23	2848	6
102513	14:08	1	f.veesh	24	3556	6
102513	14:08	1	f.shreen	25	6493	6
102513	14:08	1	f.thrache	26	4343	3
102513	14:08	1	f.shrove	27	3024	6
102513	14:08	1	f.flafe	28	3421	4
102513	14:08	1	f.thooch	29	4060	6
102513	14:08	1	f.sloosh	30	5607	5
102513	14:08	1	f.zofe	31	2325	5
102513	14:08	1	f.dwook	32	2798	5
102513	14:08	1	f.sweem	33	2772	5
102513	14:08	1	f.twase	34	4523	4
102513	14:08	1	f.sleel	35	3686	6
102513	14:08	1	f.shoob	36	2849	5
102513	14:08	1	f.klogue	37	3788	5
102513	14:08	1	f.spoop	38	4603	6
102513	14:08	1	f.brobe	39	2673	6
102513	14:08	1	f.shrote	40	2965	5
102513	14:08	1	f.shrone	41	2716	5
102513	14:08	1	f.vafe	42	3373	4
102513	14:08	1	f.dogue	43	3156	5
102513	14:08	1	f.sweeb	44	3605	6
102513	14:08	1	f.swove	45	2946	4
102513	14:08	1	f.swoog	46	3274	6
102513	14:08	1	f.speesh	47	3782	5
102513	14:08	1	f.smoon	48	3013	6
102513	14:08	1	f.chale	49	3626	5
102513	14:08	1	f.smeem	50	2511	5
102513	14:08	1	f.thwooch	51	4648	5
102513	14:08	1	f.kwooch	52	3677	5
102513	14:08	1	f.mabe	53	2783	6
102513	14:08	1	f.dreese	54	4158	5
102513	14:08	1	f.thrage	55	4822	5
102513	14:08	1	f.zood	56	2372	5
102513	14:08	1	f.kloche	57	1979	4
102513	14:08	1	f.snose	58	3201	4
102513	14:08	1	f.proshe	59	5143	4
102513	14:08	1	f.shroof	60	744	4
102513	14:08	1	r.orchestra	1	14132	5
102513	14:08	1	r.gentle	2	1328	5
102513	14:08	1	r.unhappy	3	720	5
102513	14:08	1	r.bland	4	3417	5
102513	14:08	1	r.displeased	5	11790	5
102513	14:08	1	r.nonsense	6	1456	5
102513	14:08	1	r.door	7	1467	6
102513	14:08	1	r.wink	8	2174	6
102513	14:08	1	r.mind	9	2573	6
102513	14:08	1	r.bath	10	3221	6
102513	14:08	1	r.passion	11	874	6
102513	14:08	1	r.pest	12	820	6
102513	14:08	1	r.freedom	13	2985	6
102513	14:08	1	r.context	14	6944	6
102513	14:08	1	r.vandal	15	3449	6
102513	14:08	1	r.woman	16	2101	7
102513	14:08	1	r.sick	17	1831	6
102513	14:08	1	r.desire	18	1987	6
102513	14:08	1	r.lonely	19	1865	6
102513	14:08	1	r.hairdryer	20	8292	6
102513	14:08	1	r.outrage	21	2152	4
102513	14:08	1	r.rollercoaster	22	6032	6
102513	14:08	1	r.pity	23	1221	6
102513	14:08	1	r.movie	24	953	6
102513	14:08	1	r.good	25	1610	6
102513	14:08	1	r.quality	26	2398	4
102513	14:08	1	r.scapegoat	27	2580	4
102513	14:08	1	r.manure	28	2563	4
102513	14:08	1	r.waste	29	1074	6
102513	14:08	1	r.car	30	989	6
102513	14:08	1	r.silly	31	1226	6
102513	14:08	1	r.swamp	32	2935	6
102513	14:08	1	r.death	33	2151	6
102513	14:08	1	r.clothing	34	2286	6
102513	14:08	1	r.mucus	35	2513	6
102513	14:08	1	r.maniac	36	1394	6
102513	14:08	1	r.autumn	37	2648	6
102513	14:08	1	r.yacht	38	1427	6
102513	14:08	1	r.decompose	39	2734	6
102513	14:08	1	r.masturbate	40	1078	6
102513	14:08	1	r.patent	41	5120	5
102513	14:08	1	r.habit	42	2578	6
102513	14:08	1	r.fork	43	2377	6
102513	14:08	1	r.bunny	44	1359	6
102513	14:08	1	r.birthday	45	2142	6
102513	14:08	1	r.blasphemy	46	1310	6
102513	14:08	1	r.cell	47	991	6
102513	14:08	1	r.nourish	48	901	6
102513	14:08	1	r.vest	49	926	6
102513	14:08	1	r.sinful	50	990	6
102513	14:08	1	r.city	51	1620	6
102513	14:08	1	r.dress	52	2681	6
102513	14:08	1	r.item	53	651	6
102513	14:08	1	r.identity	54	4127	5
102513	14:08	1	r.nuisance	55	1589	6
102513	14:08	1	r.admired	56	2475	6
102513	14:08	1	r.dancer	57	4470	7
102513	14:08	1	r.heaven	58	1082	7
102513	14:08	1	r.nonchalant	59	2332	6
102513	14:08	1	r.rat	60	4459	4
102513	14:08	1	howtype	1	27374	6
102913	10:05	1	speed	1	2158	43
102913	10:05	1	error	2	1947	100
102913	10:05	1	whichhand	3	8203	right
102913	10:05	1	f.sheege	1	9699	4
102913	10:05	1	f.dwale	2	5942	5
102913	10:05	1	f.snome	3	3662	7
102913	10:05	1	f.theef	4	4938	2
102913	10:05	1	f.gleese	5	2596	3
102913	10:05	1	f.spathe	6	2130	4
102913	10:05	1	f.dwooge	7	3322	5
102913	10:05	1	f.thwoor	8	3227	4
102913	10:05	1	f.gwobe	9	4480	6
102913	10:05	1	f.kreer	10	5411	4
102913	10:05	1	f.teef	11	3210	8
102913	10:05	1	f.slase	12	2368	3
102913	10:05	1	f.zeek	13	2526	6
102913	10:05	1	f.grobe	14	3775	5
102913	10:05	1	f.smashe	15	2742	2
102913	10:05	1	f.vafe	16	2814	7
102913	10:05	1	f.sloom	17	1723	6
102913	10:05	1	f.vode	18	3648	4
102913	10:05	1	f.spobe	19	4576	6
102913	10:05	1	f.smothe	20	3872	9
102913	10:05	1	f.skave	21	2683	4
102913	10:05	1	f.gloche	22	2077	4
102913	10:05	1	f.klape	23	3168	6
102913	10:05	1	f.yeeg	24	3536	5
102913	10:05	1	f.broosh	25	4729	6
102913	10:05	1	f.klafe	26	1810	4
102913	10:05	1	f.tashe	27	3310	4
102913	10:05	1	f.flache	28	4711	4
102913	10:05	1	f.grooch	29	2601	2
102913	10:05	1	f.krobe	30	2351	6
102913	10:05	1	f.leech	31	1679	3
102913	10:05	1	f.stobe	32	1569	7
102913	10:05	1	f.snoog	33	1680	4
102913	10:05	1	f.trogue	34	1562	3
102913	10:05	1	f.thooch	35	3777	6
102913	10:05	1	f.plooth	36	2151	7
102913	10:05	1	f.twose	37	2415	6
102913	10:05	1	f.yeem	38	1324	5
102913	10:05	1	f.gleef	39	1981	4
102913	10:05	1	f.proke	40	2964	3
102913	10:05	1	f.shoob	41	4914	7
102913	10:05	1	f.dwaze	42	1565	5
102913	10:05	1	f.smame	43	2627	4
102913	10:05	1	f.slabe	44	5528	5
102913	10:05	1	f.bleel	45	2194	4
102913	10:05	1	f.gwose	46	2343	5
102913	10:05	1	f.thwale	47	3951	4
102913	10:05	1	f.kweeve	48	3648	3
102913	10:05	1	f.flathe	49	2716	4
102913	10:05	1	f.sheech	50	4269	5
102913	10:05	1	f.flofe	51	2297	7
102913	10:05	1	f.thwooze	52	2771	7
102913	10:05	1	f.foof	53	3138	8
102913	10:05	1	f.groor	54	2019	3
102913	10:05	1	f.choge	55	2663	3
102913	10:05	1	f.thwase	56	2755	4
102913	10:05	1	f.swase	57	3555	5
102913	10:05	1	f.spame	58	2843	4
102913	10:05	1	f.prashe	59	4695	5
102913	10:05	1	f.meef	60	3257	5
102913	10:05	1	r.garbage	1	4751	3
102913	10:05	1	r.masturbate	2	7559	3
102913	10:05	1	r.lighthouse	3	2057	8
102913	10:05	1	r.hamburger	4	1812	8
102913	10:05	1	r.deformed	5	2145	4
102913	10:05	1	r.dollar	6	1593	8
102913	10:05	1	r.foam	7	3182	6
102913	10:05	1	r.tower	8	1709	6
102913	10:05	1	r.devoted	9	5774	7
102913	10:05	1	r.beverage	10	1742	6
102913	10:05	1	r.air	11	1365	5
102913	10:05	1	r.teacher	12	2012	6
102913	10:05	1	r.disgusted	13	2314	3
102913	10:05	1	r.skull	14	1555	4
102913	10:05	1	r.bride	15	1315	7
102913	10:05	1	r.millionaire	16	1635	8
102913	10:05	1	r.friendly	17	1791	8
102913	10:05	1	r.radiator	18	2797	4
102913	10:05	1	r.custom	19	3268	8
102913	10:05	1	r.innocent	20	1695	7
102913	10:05	1	r.proud	21	3416	6
102913	10:05	1	r.lion	22	1645	6
102913	10:05	1	r.man	23	2162	7
102913	10:05	1	r.cuddle	24	1625	7
102913	10:05	1	r.lawsuit	25	1982	3
102913	10:05	1	r.luscious	26	3620	4
102913	10:05	1	r.sugar	27	3321	6
102913	10:05	1	r.golfer	28	2371	5
102913	10:05	1	r.unhappy	29	1914	3
102913	10:05	1	r.chaos	30	8763	2
102913	10:05	1	r.patent	31	3796	4
102913	10:05	1	r.obey	32	2170	5
102913	10:05	1	r.lively	33	2201	7
102913	10:05	1	r.rejected	34	1647	3
102913	10:05	1	r.destroy	35	2251	2
102913	10:05	1	r.poverty	36	2255	3
102913	10:05	1	r.circus	37	3434	6
102913	10:05	1	r.ulcer	38	2415	3
102913	10:05	1	r.romantic	39	1572	7
102913	10:05	1	r.listless	40	5059	5
102913	10:05	1	r.muddy	41	2391	4
102913	10:05	1	r.consoled	42	2582	4
102913	10:05	1	r.rabbit	43	1316	7
102913	10:05	1	r.dirt	44	3861	4
102913	10:05	1	r.dog	45	2009	7
102913	10:05	1	r.noose	46	2094	6
102913	10:05	1	r.medicine	47	1432	6
102913	10:05	1	r.person	48	1037	6
102913	10:05	1	r.hawk	49	1888	6
102913	10:05	1	r.lamb	50	930	6
102913	10:05	1	r.riches	51	1306	6
102913	10:05	1	r.adult	52	1404	6
102913	10:05	1	r.desire	53	2945	7
102913	10:05	1	r.computer	54	2073	7
102913	10:05	1	r.game	55	2196	5
102913	10:05	1	r.stagnant	56	3042	3
102913	10:05	1	r.young	57	3406	5
102913	10:05	1	r.vandal	58	6076	3
102913	10:05	1	r.sunrise	59	1847	6
102913	10:05	1	r.fabric	60	1627	5
102913	10:05	1	howtype	1	15189	2
102913	10:20	1	speed	1	3661	65
102913	10:20	1	error	2	1850	98
102913	10:20	1	whichhand	3	8926	right
102913	10:20	1	r.dazzle	1	8645	9
102913	10:20	1	r.voyage	2	4676	5
102913	10:20	1	r.identity	3	6743	4
102913	10:20	1	r.nice	4	4152	7
102913	10:20	1	r.priest	5	3544	4
102913	10:20	1	r.upset	6	4081	1
102913	10:20	1	r.stress	7	2332	1
102913	10:20	1	r.lion	8	4228	5
102913	10:20	1	r.happy	9	2840	8
102913	10:20	1	r.addict	10	3006	1
102913	10:20	1	r.reward	11	3452	9
102913	10:20	1	r.wish	12	2543	9
102913	10:20	1	r.free	13	2687	9
102913	10:20	1	r.watch	14	3178	5
102913	10:20	1	r.dustpan	15	5777	5
102913	10:20	1	r.lost	16	3336	3
102913	10:20	1	r.mushroom	17	3441	5
102913	10:20	1	r.favor	18	2766	5
102913	10:20	1	r.spanking	19	3518	2
102913	10:20	1	r.wonder	20	2935	5
102913	10:20	1	r.friendly	21	2567	8
102913	10:20	1	r.fur	22	2983	6
102913	10:20	1	r.savior	23	4157	6
102913	10:20	1	r.clumsy	24	3053	4
102913	10:20	1	r.mother	25	2376	8
102913	10:20	1	r.cancer	26	2088	1
102913	10:20	1	r.vest	27	2754	5
102913	10:20	1	r.cabinet	28	2170	5
102913	10:20	1	r.treasure	29	2193	8
102913	10:20	1	r.nightmare	30	1887	1
102913	10:20	1	r.massacre	31	3266	1
102913	10:20	1	r.crime	32	4397	2
102913	10:20	1	r.idol	33	3076	8
102913	10:20	1	r.treat	34	2270	7
102913	10:20	1	r.cork	35	2473	5
102913	10:20	1	r.melody	36	3804	8
102913	10:20	1	r.pinch	37	2123	3
102913	10:20	1	r.whistle	38	3588	6
102913	10:20	1	r.barrel	39	3507	5
102913	10:20	1	r.material	40	2645	7
102913	10:20	1	r.triumph	41	2009	8
102913	10:20	1	r.bench	42	1663	5
102913	10:20	1	r.masterful	43	4353	5
102913	10:20	1	r.sky	44	2634	7
102913	10:20	1	r.cold	45	2358	2
102913	10:20	1	r.mistake	46	4598	3
102913	10:20	1	r.hooker	47	4084	5
102913	10:20	1	r.jewel	48	1680	8
102913	10:20	1	r.christmas	49	2034	9
102913	10:20	1	r.idiot	50	2334	2
102913	10:20	1	r.banner	51	2463	6
102913	10:20	1	r.farm	52	4330	5
102913	10:20	1	r.moody	53	3259	3
102913	10:20	1	r.mail	54	2502	5
102913	10:20	1	r.lighthouse	55	3024	7
102913	10:20	1	r.mighty	56	2181	8
102913	10:20	1	r.muscular	57	2108	9
102913	10:20	1	r.ignorance	58	2950	3
102913	10:20	1	r.divorce	59	2270	1
102913	10:20	1	r.surgery	60	2489	3
102913	10:20	1	f.drogue	1	10991	3
102913	10:20	1	f.breer	2	6760	4
102913	10:20	1	f.veem	3	6785	5
102913	10:20	1	f.shrone	4	4169	4
102913	10:20	1	f.thwome	5	2824	6
102913	10:20	1	f.dweet	6	8717	5
102913	10:20	1	f.dwoose	7	2649	6
102913	10:20	1	f.spope	8	4245	5
102913	10:20	1	f.bove	9	6049	4
102913	10:20	1	f.gwoom	10	3478	6
102913	10:20	1	f.skage	11	4601	3
102913	10:20	1	f.dwague	12	3023	3
102913	10:20	1	f.swose	13	1725	5
102913	10:20	1	f.soog	14	3902	6
102913	10:20	1	f.chathe	15	3432	5
102913	10:20	1	f.thweef	16	2029	6
102913	10:20	1	f.drare	17	5249	4
102913	10:20	1	f.smeem	18	2318	5
102913	10:20	1	f.twoog	19	2382	6
102913	10:20	1	f.smome	20	1870	5
102913	10:20	1	f.dwore	21	3352	4
102913	10:20	1	f.ploove	22	2689	6
102913	10:20	1	f.yave	23	6115	5
102913	10:20	1	f.flothe	24	1725	6
102913	10:20	1	f.floosh	25	1382	6
102913	10:20	1	f.shroosh	26	2972	5
102913	10:20	1	f.zoshe	27	4227	6
102913	10:20	1	f.twothe	28	1608	5
102913	10:20	1	f.sleem	29	2062	4
102913	10:20	1	f.kloop	30	2857	5
102913	10:20	1	f.kweeg	31	2445	6
102913	10:20	1	f.gwoof	32	1769	6
102913	10:20	1	f.kweech	33	3199	6
102913	10:20	1	f.skeeth	34	1990	4
102913	10:20	1	f.shrare	35	2188	5
102913	10:20	1	f.throoge	36	1754	5
102913	10:20	1	f.groge	37	2922	3
102913	10:20	1	f.toof	38	1371	6
102913	10:20	1	f.thave	39	1386	4
102913	10:20	1	f.fabe	40	2016	5
102913	10:20	1	f.grare	41	12301	5
102913	10:20	1	f.veesh	42	2234	5
102913	10:20	1	f.skoshe	43	1887	6
102913	10:20	1	f.dwoom	44	2697	6
102913	10:20	1	f.shroche	45	4955	5
102913	10:20	1	f.smoon	46	2435	5
102913	10:20	1	f.thwake	47	2672	4
102913	10:20	1	f.zobe	48	2715	5
102913	10:20	1	f.freech	49	2037	4
102913	10:20	1	f.gwape	50	1793	6
102913	10:20	1	f.sneege	51	5942	5
102913	10:20	1	f.mabe	52	6047	5
102913	10:20	1	f.zothe	53	3116	4
102913	10:20	1	f.roosh	54	2158	5
102913	10:20	1	f.roshe	55	3526	5
102913	10:20	1	f.skeege	56	3790	4
102913	10:20	1	f.blale	57	2109	5
102913	10:20	1	f.gwooth	58	3181	4
102913	10:20	1	f.frooth	59	1924	6
102913	10:20	1	f.peeth	60	1326	5
102913	10:20	1	howtype	1	18180	6
102913	12:31	1	speed	1	2767	44
102913	12:31	1	error	2	1914	93
102913	12:31	1	whichhand	3	10275	Right
102913	12:31	1	r.damage	1	10537	2
102913	12:31	1	r.mutilate	2	5877	1
102913	12:31	1	r.tender	3	4528	3
102913	12:31	1	r.progress	4	4241	8
102913	12:31	1	r.wonder	5	5350	5
102913	12:31	1	r.sissy	6	4463	3
102913	12:31	1	r.chocolate	7	2915	8
102913	12:31	1	r.protected	8	2524	8
102913	12:31	1	r.stupid	9	2773	2
102913	12:31	1	r.machine	10	3748	5
102913	12:31	1	r.slap	11	3965	2
102913	12:31	1	r.patent	12	4940	5
102913	12:31	1	r.maniac	13	4613	3
102913	12:31	1	r.demon	14	2339	1
102913	12:31	1	r.soothe	15	1891	8
102913	12:31	1	r.accident	16	3333	3
102913	12:31	1	r.dawn	17	4950	7
102913	12:31	1	r.chair	18	3151	6
102913	12:31	1	r.truck	19	2191	7
102913	12:31	1	r.hide	20	2181	3
102913	12:31	1	r.money	21	2540	8
102913	12:31	1	r.misery	22	1860	2
102913	12:31	1	r.employment	23	2535	7
102913	12:31	1	r.blubber	24	3080	5
102913	12:31	1	r.cockroach	25	2299	3
102913	12:31	1	r.pleasure	26	2412	8
102913	12:31	1	r.farm	27	2569	6
102913	12:31	1	r.hairpin	28	3864	4
102913	12:31	1	r.gold	29	2180	9
102913	12:31	1	r.comedy	30	1755	7
102913	12:31	1	r.bathroom	31	4506	4
102913	12:31	1	r.overcast	32	4700	4
102913	12:31	1	r.immature	33	1927	3
102913	12:31	1	r.grime	34	1648	2
102913	12:31	1	r.peace	35	1691	8
102913	12:31	1	r.vigorous	36	3829	4
102913	12:31	1	r.column	37	2314	6
102913	12:31	1	r.dazzle	38	1780	7
102913	12:31	1	r.nursery	39	1762	6
102913	12:31	1	r.song	40	2249	7
102913	12:31	1	r.lavish	41	1732	7
102913	12:31	1	r.vehicle	42	1205	7
102913	12:31	1	r.vomit	43	2642	2
102913	12:31	1	r.honor	44	1799	8
102913	12:31	1	r.disturb	45	2444	3
102913	12:31	1	r.village	46	1824	6
102913	12:31	1	r.adult	47	3221	5
102913	12:31	1	r.lightning	48	1562	4
102913	12:31	1	r.answer	49	1569	6
102913	12:31	1	r.red	50	1488	6
102913	12:31	1	r.intercourse	51	2170	7
102913	12:31	1	r.excellence	52	3513	8
102913	12:31	1	r.snuggle	53	1371	8
102913	12:31	1	r.satisfied	54	1162	8
102913	12:31	1	r.restaurant	55	2200	7
102913	12:31	1	r.intellect	56	1454	8
102913	12:31	1	r.favor	57	1354	7
102913	12:31	1	r.table	58	1481	6
102913	12:31	1	r.moody	59	1571	4
102913	12:31	1	r.quality	60	1650	7
102913	12:31	1	f.jeef	1	3496	5
102913	12:31	1	f.stoof	2	3210	6
102913	12:31	1	f.gwove	3	3504	4
102913	12:31	1	f.vashe	4	3466	3
102913	12:31	1	f.drage	5	3341	4
102913	12:31	1	f.kroosh	6	3118	4
102913	12:31	1	f.twool	7	2792	3
102913	12:31	1	f.flashe	8	2062	6
102913	12:31	1	f.threege	9	3961	4
102913	12:31	1	f.wothe	10	2577	4
102913	12:31	1	f.smase	11	2623	6
102913	12:31	1	f.gwoom	12	1621	7
102913	12:31	1	f.grague	13	3097	4
102913	12:31	1	f.thwaze	14	2460	6
102913	12:31	1	f.nabe	15	2831	3
102913	12:31	1	f.dware	16	4339	4
102913	12:31	1	f.fafe	17	3004	6
102913	12:31	1	f.stogue	18	2986	7
102913	12:31	1	f.swooge	19	1713	6
102913	12:31	1	f.greer	20	2226	4
102913	12:31	1	f.breege	21	1927	3
102913	12:31	1	f.pleep	22	2303	6
102913	12:31	1	f.throke	23	1768	4
102913	12:31	1	f.thwade	24	2287	6
102913	12:31	1	f.sabe	25	2066	6
102913	12:31	1	f.sobe	26	2933	3
102913	12:31	1	f.vage	27	1526	3
102913	12:31	1	f.skabe	28	1526	6
102913	12:31	1	f.flooth	29	2214	7
102913	12:31	1	f.teeve	30	2156	7
102913	12:31	1	f.slashe	31	1723	6
102913	12:31	1	f.smoob	32	4812	6
102913	12:31	1	f.flooge	33	2138	6
102913	12:31	1	f.drooge	34	2987	3
102913	12:31	1	f.soosh	35	2657	6
102913	12:31	1	f.thathe	36	1645	4
102913	12:31	1	f.peeth	37	2049	7
102913	12:31	1	f.glashe	38	1452	3
102913	12:31	1	f.threef	39	1344	3
102913	12:31	1	f.bleeg	40	2255	4
102913	12:31	1	f.swoof	41	2323	7
102913	12:31	1	f.kleel	42	2028	7
102913	12:31	1	f.threeth	43	1561	4
102913	12:31	1	f.freege	44	1752	3
102913	12:31	1	f.thooge	45	1951	6
102913	12:31	1	f.neeth	46	1975	3
102913	12:31	1	f.thware	47	1766	4
102913	12:31	1	f.thween	48	1237	3
102913	12:31	1	f.thafe	49	1873	6
102913	12:31	1	f.floob	50	2068	7
102913	12:31	1	f.dweeze	51	1439	4
102913	12:31	1	f.proshe	52	2539	7
102913	12:31	1	f.drade	53	1419	3
102913	12:31	1	f.shrave	54	1936	4
102913	12:31	1	f.spage	55	1545	2
102913	12:31	1	f.droog	56	3472	4
102913	12:31	1	f.smool	57	1588	3
102913	12:31	1	f.shreep	58	2122	6
102913	12:31	1	f.thone	59	1971	7
102913	12:31	1	f.skoove	60	1545	4
102913	12:31	1	howtype	1	7960	2
102913	14:31	1	speed	1	2758	45
102913	14:31	1	error	2	1730	86
102913	14:31	1	whichhand	3	11178	Left
102913	14:31	1	f.yoot	1	11430	4
102913	14:31	1	f.noche	2	7662	5
102913	14:31	1	f.kwooge	3	8275	5
102913	14:31	1	f.snoom	4	4543	7
102913	14:31	1	f.bague	5	4400	6
102913	14:31	1	f.nooch	6	6214	5
102913	14:31	1	f.fleeg	7	3812	4
102913	14:31	1	f.lool	8	3538	7
102913	14:31	1	f.smooze	9	2875	6
102913	14:31	1	f.drache	10	3486	6
102913	14:31	1	f.thweer	11	4473	7
102913	14:31	1	f.threef	12	2572	7
102913	14:31	1	f.doof	13	3692	6
102913	14:31	1	f.threed	14	2390	6
102913	14:31	1	f.dwame	15	3289	6
102913	14:31	1	f.thwoge	16	5975	5
102913	14:31	1	f.smeesh	17	7302	4
102913	14:31	1	f.brobe	18	4090	6
102913	14:31	1	f.jeesh	19	8925	6
102913	14:31	1	f.thwabe	20	4560	6
102913	14:31	1	f.preeth	21	3239	6
102913	14:31	1	f.dwafe	22	6348	6
102913	14:31	1	f.smaze	23	6549	5
102913	14:31	1	f.dreese	24	5782	6
102913	14:31	1	f.snashe	25	5310	4
102913	14:31	1	f.plool	26	3544	6
102913	14:31	1	f.flafe	27	4568	5
102913	14:31	1	f.dwathe	28	3792	5
102913	14:31	1	f.thwoom	29	3022	7
102913	14:31	1	f.poog	30	2580	4
102913	14:31	1	f.blobe	31	3450	3
102913	14:31	1	f.thabe	32	4030	6
102913	14:31	1	f.drage	33	4539	5
102913	14:31	1	f.twage	34	3141	4
102913	14:31	1	f.chome	35	4197	6
102913	14:31	1	f.klope	36	2652	4
102913	14:31	1	f.proche	37	5080	3
102913	14:31	1	f.smoog	38	5963	4
102913	14:31	1	f.ploshe	39	4219	5
102913	14:31	1	f.kwobe	40	3945	6
102913	14:31	1	f.glose	41	1953	7
102913	14:31	1	f.fache	42	3921	5
102913	14:31	1	f.thwache	43	9442	6
102913	14:31	1	f.flashe	44	9049	5
102913	14:31	1	f.throol	45	2663	5
102913	14:31	1	f.dweech	46	1963	4
102913	14:31	1	f.sneech	47	2505	4
102913	14:31	1	f.snothe	48	2107	4
102913	14:31	1	f.smathe	49	4845	4
102913	14:31	1	f.drafe	50	1465	4
102913	14:31	1	f.thwoor	51	10812	6
102913	14:31	1	f.yage	52	4916	4
102913	14:31	1	f.feeb	53	1846	6
102913	14:31	1	f.veef	54	3569	7
102913	14:31	1	f.zeer	55	1577	7
102913	14:31	1	f.blathe	56	6319	4
102913	14:31	1	f.klogue	57	5762	5
102913	14:31	1	f.sleeg	58	2898	3
102913	14:31	1	f.lashe	59	4076	6
102913	14:31	1	f.gloog	60	1902	4
102913	14:31	1	r.part	1	3955	6
102913	14:31	1	r.roach	2	6499	4
102913	14:31	1	r.cemetery	3	2790	5
102913	14:31	1	r.intimate	4	4669	4
102913	14:31	1	r.glass	5	2737	7
102913	14:31	1	r.ocean	6	2489	6
102913	14:31	1	r.massacre	7	7011	5
102913	14:31	1	r.astronaut	8	7058	7
102913	14:31	1	r.fatigued	9	2815	6
102913	14:31	1	r.air	10	2804	6
102913	14:31	1	r.snow	11	3346	5
102913	14:31	1	r.cancer	12	2434	5
102913	14:31	1	r.christmas	13	2551	5
102913	14:31	1	r.shriek	14	6031	5
102913	14:31	1	r.queen	15	3284	5
102913	14:31	1	r.infant	16	3191	6
102913	14:31	1	r.tree	17	3182	6
102913	14:31	1	r.famous	18	5660	4
102913	14:31	1	r.headlight	19	3465	4
102913	14:31	1	r.method	20	3540	6
102913	14:31	1	r.ignorance	21	3549	5
102913	14:31	1	r.diploma	22	9373	5
102913	14:31	1	r.corrupt	23	3758	5
102913	14:31	1	r.reunion	24	3926	3
102913	14:31	1	r.inferior	25	3943	4
102913	14:31	1	r.slime	26	5503	4
102913	14:31	1	r.lucky	27	4114	3
102913	14:31	1	r.hatred	28	2660	5
102913	14:31	1	r.severe	29	6255	5
102913	14:31	1	r.eat	30	1700	5
102913	14:31	1	r.lamp	31	1838	3
102913	14:31	1	r.madman	32	3906	4
102913	14:31	1	r.woman	33	1676	5
102913	14:31	1	r.cork	34	1823	2
102913	14:31	1	r.interest	35	3132	5
102913	14:31	1	r.scholar	36	3644	6
102913	14:31	1	r.cut	37	2289	3
102913	14:31	1	r.funeral	38	5027	5
102913	14:31	1	r.lump	39	2265	1
102913	14:31	1	r.shotgun	40	6212	5
102913	14:31	1	r.pervert	41	3322	5
102913	14:31	1	r.flabby	42	2540	3
102913	14:31	1	r.icebox	43	4020	5
102913	14:31	1	r.scar	44	1714	5
102913	14:31	1	r.tobacco	45	4234	5
102913	14:31	1	r.mantel	46	3888	6
102913	14:31	1	r.hooker	47	3834	5
102913	14:31	1	r.dream	48	2976	7
102913	14:31	1	r.plant	49	2550	6
102913	14:31	1	r.bus	50	1934	3
102913	14:31	1	r.diamond	51	2390	7
102913	14:31	1	r.memory	52	4821	6
102913	14:31	1	r.masterful	53	4371	5
102913	14:31	1	r.grime	54	4226	4
102913	14:31	1	r.ugly	55	2223	4
102913	14:31	1	r.gossip	56	5117	5
102913	14:31	1	r.prick	57	1991	4
102913	14:31	1	r.gun	58	2701	5
102913	14:31	1	r.rock	59	5407	5
102913	14:31	1	r.fearful	60	2389	5
102913	14:31	1	howtype	1	13770	6
103013	12:02	1	speed	1	7786	53
103013	12:02	1	error	2	2460	92
103013	12:02	1	whichhand	3	6056	right
103013	12:02	1	r.hit	1	8056	2
103013	12:02	1	r.hotel	2	6105	5
103013	12:02	1	r.hamburger	3	2493	6
103013	12:02	1	r.salute	4	3230	8
103013	12:02	1	r.theory	5	2156	9
103013	12:02	1	r.bored	6	2204	1
103013	12:02	1	r.astronaut	7	2377	2
103013	12:02	1	r.prick	8	2999	5
103013	12:02	1	r.garter	9	4172	6
103013	12:02	1	r.brave	10	2268	7
103013	12:02	1	r.tool	11	4576	4
103013	12:08	1	speed	1	3263	53
103013	12:08	1	error	2	1367	92
103013	12:08	1	whichhand	3	3587	right
103013	12:08	1	f.theel	1	3343	3
103013	12:08	1	f.greech	2	2999	5
103013	12:08	1	f.sheege	3	2861	5
103013	12:08	1	f.gleef	4	4417	4
103013	12:08	1	f.gloge	5	2678	3
103013	12:08	1	f.smeesh	6	2233	6
103013	12:08	1	f.theen	7	3013	4
103013	12:08	1	f.kwode	8	1667	7
103013	12:08	1	f.leesh	9	3413	7
103013	12:08	1	f.plave	10	2459	6
103013	12:08	1	f.twoshe	11	2190	2
103013	12:08	1	f.thrope	12	2085	8
103013	12:08	1	f.theet	13	1743	2
103013	12:08	1	f.smoove	14	1551	5
103013	12:08	1	f.dweeg	15	1486	3
103013	12:08	1	f.shrabe	16	1752	6
103013	12:08	1	f.krache	17	1344	6
103013	12:08	1	f.frobe	18	1543	7
103013	12:08	1	f.grore	19	1543	3
103013	12:08	1	f.snoob	20	2038	8
103013	12:08	1	f.thrage	21	1337	3
103013	12:08	1	f.skame	22	2193	2
103013	12:08	1	f.smathe	23	1143	7
103013	12:08	1	f.fabe	24	2343	7
103013	12:08	1	f.keeb	25	2238	3
103013	12:08	1	f.sache	26	1875	9
103013	12:08	1	f.dweet	27	1462	2
103013	12:08	1	f.gwofe	28	2624	3
103013	12:08	1	f.skoke	29	1846	1
103013	12:08	1	f.plooch	30	1953	7
103013	12:08	1	f.snove	31	1481	3
103013	12:08	1	f.gache	32	1827	5
103013	12:08	1	f.droob	33	3175	3
103013	12:08	1	f.shooch	34	1462	2
103013	12:08	1	f.joom	35	1105	7
103013	12:08	1	f.yafe	36	1187	6
103013	12:08	1	f.skoge	37	1673	3
103013	12:08	1	f.noosh	38	1828	8
103013	12:08	1	f.kroosh	39	800	8
103013	12:08	1	f.thage	40	1157	6
103013	12:08	1	f.throob	41	2156	3
103013	12:08	1	f.dweer	42	2004	6
103013	12:08	1	f.shrote	43	3274	2
103013	12:08	1	f.smeeth	44	2588	8
103013	12:08	1	f.brare	45	3251	1
103013	12:08	1	f.gleeth	46	2287	2
103013	12:08	1	f.thathe	47	1962	2
103013	12:08	1	f.spage	48	2625	6
103013	12:08	1	f.slole	49	1037	6
103013	12:08	1	f.thade	50	1154	6
103013	12:08	1	f.shrome	51	2592	8
103013	12:08	1	f.noob	52	2231	1
103013	12:08	1	f.theeb	53	2355	7
103013	12:08	1	f.sneeb	54	1707	7
103013	12:08	1	f.groog	55	1836	2
103013	12:08	1	f.drade	56	1536	5
103013	12:08	1	f.sloshe	57	3529	8
103013	12:08	1	f.thwose	58	7817	8
103013	12:08	1	f.zate	59	4608	1
103013	12:08	1	f.yeeze	60	1711	9
103013	12:08	1	r.invader	1	3674	2
103013	12:08	1	r.cyclone	2	1742	7
103013	12:08	1	r.applause	3	1958	8
103013	12:08	1	r.failure	4	2334	1
103013	12:08	1	r.water	5	1413	9
103013	12:08	1	r.thankful	6	1771	9
103013	12:08	1	r.grateful	7	1313	8
103013	12:08	1	r.corrupt	8	2003	3
103013	12:08	1	r.mantel	9	2032	7
103013	12:08	1	r.ache	10	2453	2
103013	12:08	1	r.kerosene	11	2080	6
103013	12:08	1	r.barrel	12	1850	3
103013	12:08	1	r.kind	13	2470	7
103013	12:08	1	r.vandal	14	1817	1
103013	12:08	1	r.vehicle	15	1814	8
103013	12:08	1	r.dummy	16	1971	2
103013	12:08	1	r.headlight	17	2546	8
103013	12:08	1	r.rat	18	1322	1
103013	12:08	1	r.family	19	1442	9
103013	12:08	1	r.identity	20	1246	9
103013	12:08	1	r.birthday	21	1289	8
103013	12:08	1	r.busybody	22	2568	6
103013	12:08	1	r.athletics	23	1914	7
103013	12:08	1	r.nonsense	24	2107	5
103013	12:08	1	r.inspire	25	1643	8
103013	12:08	1	r.wasp	26	1304	4
103013	12:08	1	r.flirt	27	1345	7
103013	12:08	1	r.measles	28	3513	1
103013	12:08	1	r.beauty	29	1555	9
103013	12:08	1	r.mischief	30	1306	9
103013	12:08	1	r.golfer	31	1976	4
103013	12:08	1	r.danger	32	4706	5
103013	12:08	1	r.despairing	33	3172	7
103013	12:08	1	r.item	34	2931	8
103013	12:08	1	r.answer	35	4101	8
103013	12:08	1	r.vomit	36	1455	1
103013	12:08	1	r.love	37	2682	9
103013	12:08	1	r.dirt	38	1837	8
103013	12:08	1	r.optimism	39	1929	7
103013	12:08	1	r.kitten	40	1817	8
103013	12:08	1	r.voyage	41	1511	9
103013	12:08	1	r.breast	42	2487	5
103013	12:08	1	r.pistol	43	1726	9
103013	12:08	1	r.tune	44	1569	8
103013	12:08	1	r.ignorance	45	1657	4
103013	12:08	1	r.ankle	46	2148	5
103013	12:08	1	r.alone	47	2036	2
103013	12:08	1	r.basket	48	1289	6
103013	12:08	1	r.metal	49	2495	8
103013	12:08	1	r.sweetheart	50	1124	9
103013	12:08	1	r.gentle	51	1285	7
103013	12:08	1	r.leader	52	1311	9
103013	12:08	1	r.morbid	53	1719	2
103013	12:08	1	r.circus	54	1609	9
103013	12:08	1	r.rabbit	55	2293	6
103013	12:08	1	r.stiff	56	2152	1
103013	12:08	1	r.snake	57	2240	8
103013	12:08	1	r.soothe	58	2380	9
103013	12:08	1	r.garment	59	2162	5
103013	12:08	1	r.cellar	60	2369	4
103013	12:08	1	howtype	1	10222	6
103013	13:25	1	speed	1	4753	53
103013	13:25	1	error	2	3813	94
103013	13:25	1	whichhand	3	12123	right
103013	13:25	1	f.tweech	1	10986	3
103013	13:25	1	f.foche	2	6595	5
103013	13:25	1	f.gleef	3	2874	2
103013	13:25	1	f.sneech	4	3398	1
103013	13:25	1	f.dweek	5	5324	3
103013	13:25	1	f.zoosh	6	4190	7
103013	13:25	1	f.stogue	7	4309	5
103013	13:25	1	f.shroche	8	3343	4
103013	13:25	1	f.koog	9	2839	5
103013	13:25	1	f.shroosh	10	2412	6
103013	13:25	1	f.trobe	11	2281	5
103013	13:25	1	f.skogue	12	5771	3
103013	13:25	1	f.peesh	13	7307	4
103013	13:25	1	f.thwofe	14	2894	2
103013	13:25	1	f.slache	15	4208	6
103013	13:25	1	f.skame	16	4390	4
103013	13:25	1	f.dweese	17	3357	1
103013	13:25	1	f.prote	18	3333	5
103013	13:25	1	f.dweesh	19	8654	4
103013	13:25	1	f.kweeze	20	8460	3
103013	13:25	1	f.jofe	21	3609	1
103013	13:25	1	f.thrache	22	3318	5
103013	13:25	1	f.twoge	23	4056	2
103013	13:25	1	f.nooth	24	3692	3
103013	13:25	1	f.gwoze	25	6806	2
103013	13:25	1	f.dabe	26	5085	4
103013	13:25	1	f.sweem	27	3168	3
103013	13:25	1	f.glooth	28	2888	3
103013	13:25	1	f.smeeze	29	4490	4
103013	13:25	1	f.glage	30	4629	2
103013	13:25	1	f.soche	31	4875	7
103013	13:25	1	f.sweese	32	3230	6
103013	13:25	1	f.dwothe	33	4595	3
103013	13:25	1	f.dwape	34	3033	4
103013	13:25	1	f.zoob	35	2878	6
103013	13:25	1	f.shobe	36	3113	6
103013	13:25	1	f.swase	37	4370	7
103013	13:25	1	f.wathe	38	2434	6
103013	13:25	1	f.fague	39	4270	5
103013	13:25	1	f.smole	40	4802	3
103013	13:25	1	f.dwoosh	41	3121	3
103013	13:25	1	f.smeen	42	4018	3
103013	13:25	1	f.shreel	43	2920	2
103013	13:25	1	f.thwode	44	3473	3
103013	13:25	1	f.shroshe	45	8052	5
103013	13:25	1	f.kwode	46	3250	5
103013	13:25	1	f.zeet	47	2222	6
103013	13:25	1	f.kroor	48	3587	5
103013	13:25	1	f.kreeth	49	3746	3
103013	13:25	1	f.trooge	50	3746	2
103013	13:25	1	f.yeet	51	2586	1
103013	13:25	1	f.shage	52	2593	6
103013	13:25	1	f.zabe	53	2295	7
103013	13:25	1	f.speege	54	2313	3
103013	13:25	1	f.twague	55	3778	2
103013	13:25	1	f.shrofe	56	2601	6
103013	13:25	1	f.groob	57	4447	4
103013	13:25	1	f.sheech	58	2779	3
103013	13:25	1	f.steeth	59	3434	3
103013	13:25	1	f.sloog	60	3167	5
103013	13:25	1	r.scream	1	7178	5
103013	13:25	1	r.detest	2	5458	3
103013	13:25	1	r.reptile	3	3894	6
103013	13:25	1	r.sick	4	2289	2
103013	13:25	1	r.elated	5	2819	7
103013	13:25	1	r.lazy	6	2856	6
103013	13:25	1	r.bullet	7	1828	6
103013	13:25	1	r.resent	8	3177	4
103013	13:25	1	r.nightmare	9	3047	7
103013	13:25	1	r.venom	10	3339	7
103013	13:25	1	r.abuse	11	2652	4
103013	13:25	1	r.maniac	12	2096	6
103013	13:25	1	r.inferior	13	4338	6
103013	13:25	1	r.disdainful	14	2467	3
103013	13:25	1	r.useless	15	3190	5
103013	13:25	1	r.alert	16	1781	6
103013	13:25	1	r.troubled	17	4059	5
103013	13:25	1	r.square	18	2167	6
103013	13:25	1	r.tune	19	4126	5
103013	13:25	1	r.garment	20	2639	2
103013	13:25	1	r.good	21	1739	6
103013	13:25	1	r.anxious	22	2796	7
103013	13:25	1	r.natural	23	2914	8
103013	13:25	1	r.month	24	1514	4
103013	13:25	1	r.sex	25	2220	6
103013	13:25	1	r.scholar	26	2289	7
103013	13:25	1	r.adorable	27	2723	8
103013	13:25	1	r.regretful	28	1397	4
103013	13:25	1	r.rusty	29	4338	2
103013	13:25	1	r.absurd	30	2235	2
103013	13:25	1	r.pizza	31	3096	6
103013	13:25	1	r.hotel	32	3002	5
103013	13:25	1	r.gift	33	2904	5
103013	13:25	1	r.grime	34	2674	2
103013	13:25	1	r.dreadful	35	4309	4
103013	13:25	1	r.pie	36	1719	6
103013	13:25	1	r.lost	37	3360	6
103013	13:25	1	r.king	38	2287	7
103013	13:25	1	r.delayed	39	3105	5
103013	13:25	1	r.criminal	40	3930	6
103013	13:25	1	r.silly	41	2588	7
103013	13:25	1	r.addict	42	2506	5
103013	13:25	1	r.egg	43	2452	3
103013	13:25	1	r.cheer	44	3280	2
103013	13:25	1	r.face	45	3051	4
103013	13:25	1	r.comfort	46	1991	6
103013	13:25	1	r.odd	47	2477	4
103013	13:25	1	r.alcoholic	48	3072	5
103013	13:25	1	r.knot	49	2291	4
103013	13:25	1	r.blubber	50	3005	3
103013	13:25	1	r.pancakes	51	2363	7
103013	13:25	1	r.desire	52	2946	7
103013	13:25	1	r.couple	53	1762	6
103013	13:25	1	r.exercise	54	2481	4
103013	13:25	1	r.doll	55	2604	3
103013	13:25	1	r.cow	56	3593	5
103013	13:25	1	r.slush	57	2192	6
103013	13:25	1	r.quarrel	58	4070	3
103013	13:25	1	r.material	59	4730	7
103013	13:25	1	r.cuisine	60	2019	4
103013	13:25	1	howtype	1	17414	6
103013	13:54	1	speed	1	3243	53
103013	13:54	1	error	2	1947	98
103013	13:54	1	whichhand	3	7419	Right
103013	13:54	1	f.deef	1	13872	2
103013	13:54	1	f.throor	2	5039	6
103013	13:54	1	f.kleeb	3	2517	3
103013	13:54	1	f.yeet	4	3389	2
103013	13:54	1	f.threed	5	2965	5
103013	13:54	1	f.pleer	6	2300	7
103013	13:54	1	f.smoze	7	2645	7
103013	13:54	1	f.pleek	8	1697	7
103013	13:54	1	f.smogue	9	2355	2
103013	13:54	1	f.thwogue	10	3691	1
103013	13:54	1	f.vade	11	2150	6
103013	13:54	1	f.gathe	12	3541	8
103013	13:54	1	f.kwache	13	1790	8
103013	13:54	1	f.smeeze	14	1437	4
103013	13:54	1	f.thwofe	15	1873	4
103013	13:54	1	f.chathe	16	5076	2
103013	13:54	1	f.frove	17	1943	4
103013	13:54	1	f.smope	18	2447	7
103013	13:54	1	f.swole	19	4130	5
103013	13:54	1	f.yoove	20	3388	7
103013	13:54	1	f.tage	21	1722	2
103013	13:54	1	f.theep	22	1379	3
103013	13:54	1	f.sneeb	23	2865	8
103013	13:54	1	f.drote	24	1509	3
103013	13:54	1	f.speeth	25	2038	2
103013	13:54	1	f.swothe	26	2123	3
103013	13:54	1	f.chale	27	1804	4
103013	13:54	1	f.sloor	28	1953	3
103013	13:54	1	f.plooch	29	2457	5
103013	13:54	1	f.thrade	30	1789	4
103013	13:54	1	f.yose	31	2523	3
103013	13:54	1	f.snooge	32	2156	4
103013	13:54	1	f.preesh	33	2219	8
103013	13:54	1	f.yeem	34	2737	7
103013	13:54	1	f.shroom	35	1457	7
103013	13:54	1	f.droge	36	1653	3
103013	13:54	1	f.gweege	37	2448	9
103013	13:54	1	f.twose	38	988	5
103013	13:54	1	f.dwoove	39	1307	8
103013	13:54	1	f.preech	40	3092	9
103013	13:54	1	f.joche	41	1390	4
103013	13:54	1	f.greer	42	6525	3
103013	13:54	1	f.poob	43	2518	9
103013	13:54	1	f.krooth	44	1391	9
103013	13:54	1	f.dreet	45	1494	4
103013	13:54	1	f.flogue	46	5110	4
103013	13:54	1	f.gwoove	47	1553	5
103013	13:54	1	f.freege	48	881	3
103013	13:54	1	f.yoom	49	1459	8
103013	13:54	1	f.thale	50	1414	5
103013	13:54	1	f.thrave	51	1515	2
103013	13:54	1	f.kwoog	52	1404	6
103013	13:54	1	f.chode	53	1097	4
103013	13:54	1	f.froob	54	1931	4
103013	13:54	1	f.snade	55	1691	2
103013	13:54	1	f.toog	56	1605	2
103013	13:54	1	f.ploop	57	2402	9
103013	13:54	1	f.ploor	58	2321	3
103013	13:54	1	f.gweef	59	1474	3
103013	13:54	1	f.thwore	60	1349	2
103013	13:54	1	r.power	1	5229	7
103013	13:54	1	r.python	2	3162	9
103013	13:54	1	r.corner	3	2449	2
103013	13:54	1	r.vandal	4	2677	3
103013	13:54	1	r.foot	5	6016	2
103013	13:54	1	r.rainbow	6	2166	9
103013	13:54	1	r.highway	7	4813	4
103013	13:54	1	r.lump	8	5987	2
103013	13:54	1	r.morgue	9	1963	1
103013	13:54	1	r.bathroom	10	1818	1
103013	13:54	1	r.bunny	11	1823	8
103013	13:54	1	r.stove	12	1835	4
103013	13:54	1	r.fireworks	13	1840	7
103013	13:54	1	r.agreement	14	1741	5
103013	13:54	1	r.clouds	15	1709	7
103013	13:54	1	r.breast	16	2526	4
103013	13:54	1	r.hungry	17	2111	4
103013	13:54	1	r.rejected	18	3456	3
103013	13:54	1	r.baby	19	1692	4
103013	13:54	1	r.cut	20	2046	3
103013	13:54	1	r.white	21	2226	5
103013	13:54	1	r.bus	22	3814	2
103013	13:54	1	r.tidy	23	1532	2
103013	13:54	1	r.bird	24	2355	2
103013	13:54	1	r.couple	25	1868	8
103013	13:54	1	r.wit	26	1455	7
103013	13:54	1	r.rat	27	1283	1
103013	13:54	1	r.muffin	28	1517	8
103013	13:54	1	r.farm	29	1821	3
103013	13:54	1	r.hostage	30	1434	2
103013	13:54	1	r.tamper	31	1230	4
103013	13:54	1	r.dustpan	32	1251	2
103013	13:54	1	r.mold	33	1141	2
103013	13:54	1	r.city	34	1958	9
103013	13:54	1	r.green	35	998	4
103013	13:54	1	r.valentine	36	1755	9
103013	13:54	1	r.germs	37	2179	5
103013	13:54	1	r.alert	38	1865	1
103013	13:54	1	r.respect	39	1700	8
103013	13:54	1	r.glory	40	1238	4
103013	13:54	1	r.astronaut	41	1506	2
103013	13:54	1	r.reserved	42	1211	2
103013	13:54	1	r.unhappy	43	1129	2
103013	13:54	1	r.corridor	44	2512	8
103013	13:54	1	r.toxic	45	1873	2
103013	13:54	1	r.disappoint	46	3748	4
103013	13:54	1	r.gold	47	916	4
103013	13:54	1	r.mobility	48	1165	2
103013	13:54	1	r.burial	49	1788	3
103013	13:54	1	r.surgery	50	1010	2
103013	13:54	1	r.overcast	51	1839	4
103013	13:54	1	r.burdened	52	931	4
103013	13:54	1	r.circus	53	1587	4
103013	13:54	1	r.jelly	54	3617	6
103013	13:54	1	r.greet	55	1622	7
103013	13:54	1	r.putrid	56	1980	9
103013	13:54	1	r.kindness	57	2194	6
103013	13:54	1	r.scholar	58	1824	6
103013	13:54	1	r.idol	59	1213	4
103013	13:54	1	r.wish	60	1889	3
103013	13:54	1	howtype	1	13066	6
103113	12:32	1	speed	1	2863	71
103113	12:32	1	error	2	1811	100
103113	12:32	1	whichhand	3	8265	right
103113	12:32	1	r.menace	1	10596	1
103113	12:32	1	r.shriek	2	4516	2
103113	12:32	1	r.cuisine	3	8382	6
103113	12:32	1	r.flirt	4	4854	8
103113	12:32	1	r.coarse	5	7267	4
103113	12:32	1	r.legend	6	4184	6
103113	12:32	1	r.part	7	6103	5
103113	12:32	1	r.penthouse	8	3730	6
103113	12:32	1	r.pity	9	5683	3
103113	12:32	1	r.exercise	10	13278	6
103113	12:32	1	r.activate	11	6396	5
103113	12:32	1	r.pervert	12	3476	2
103113	12:32	1	r.glacier	13	5774	6
103113	12:32	1	r.fearful	14	4719	1
103113	12:32	1	r.breast	15	5248	5
103113	12:32	1	r.shamed	16	4261	2
103113	12:32	1	r.detest	17	4953	2
103113	12:32	1	r.happy	18	6610	7
103113	12:32	1	r.protected	19	6208	9
103113	12:32	1	r.knot	20	4606	7
103113	12:32	1	r.tease	21	4349	3
103113	12:32	1	r.skijump	22	5853	5
103113	12:32	1	r.indifferent	23	7578	4
103113	12:32	1	r.dustpan	24	6315	6
103113	12:32	1	r.strong	25	5325	8
103113	12:32	1	r.kick	26	6071	5
103113	12:32	1	r.dream	27	8515	4
103113	12:32	1	r.dirty	28	5206	3
103113	12:32	1	r.pie	29	7293	5
103113	12:32	1	r.habit	30	6728	4
103113	12:32	1	r.ship	31	6658	7
103113	12:32	1	r.murderer	32	3910	1
103113	12:32	1	r.voyage	33	5160	8
103113	12:32	1	r.social	34	5592	7
103113	12:32	1	r.gentle	35	4607	8
103113	12:32	1	r.blond	36	6518	5
103113	12:32	1	r.sissy	37	6080	9
103113	12:32	1	r.luscious	38	4092	8
103113	12:32	1	r.smooth	39	4086	6
103113	12:32	1	r.flabby	40	3425	2
103113	12:32	1	r.brave	41	2782	8
103113	12:32	1	r.plant	42	6413	6
103113	12:32	1	r.mantel	43	4883	5
103113	12:32	1	r.fever	44	4919	3
103113	12:32	1	r.stiff	45	4441	3
103113	12:32	1	r.gangrene	46	5286	2
103113	12:32	1	r.boxer	47	5378	6
103113	12:32	1	r.nice	48	3113	6
103113	12:32	1	r.people	49	4562	5
103113	12:32	1	r.rancid	50	2642	3
103113	12:32	1	r.terrified	51	3214	2
103113	12:32	1	r.rock	52	4196	6
103113	12:32	1	r.time	53	7562	3
103113	12:32	1	r.ketchup	54	4299	5
103113	12:32	1	r.decorate	55	2717	7
103113	12:32	1	r.handicap	56	4070	5
103113	12:32	1	r.bathtub	57	7274	5
103113	12:32	1	r.poster	58	4614	6
103113	12:32	1	r.pleasure	59	2764	7
103113	12:32	1	r.errand	60	7251	4
103113	12:32	1	f.breesh	1	5310	4
103113	12:32	1	f.kloob	2	3967	6
103113	12:32	1	f.klode	3	2191	5
103113	12:32	1	f.shrone	4	6053	4
103113	12:32	1	f.breege	5	7698	4
103113	12:32	1	f.dwale	6	4030	3
103113	12:32	1	f.threef	7	11411	5
103113	12:32	1	f.groshe	8	6211	4
103113	12:32	1	f.kwobe	9	3962	7
103113	12:32	1	f.thwape	10	3457	4
103113	12:32	1	f.loche	11	3797	7
103113	12:32	1	f.shreege	12	6092	6
103113	12:32	1	f.dwone	13	3990	4
103113	12:32	1	f.klashe	14	3118	3
103113	12:32	1	f.sogue	15	5879	6
103113	12:32	1	f.shrool	16	5811	5
103113	12:32	1	f.skase	17	3785	4
103113	12:32	1	f.meef	18	4864	7
103113	12:32	1	f.sneed	19	5060	7
103113	12:32	1	f.thache	20	3848	5
103113	12:32	1	f.sheeg	21	4348	6
103113	12:32	1	f.frafe	22	11116	5
103113	12:32	1	f.mafe	23	5760	4
103113	12:32	1	f.dweeg	24	2688	3
103113	12:32	1	f.meesh	25	2995	7
103113	12:32	1	f.thwode	26	3561	7
103113	12:32	1	f.zooch	27	4081	8
103113	12:32	1	f.swale	28	4700	6
103113	12:32	1	f.smabe	29	4726	6
103113	12:32	1	f.snage	30	3104	4
103113	12:32	1	f.zashe	31	2650	8
103113	12:32	1	f.fobe	32	4430	3
103113	12:32	1	f.geech	33	2778	2
103113	12:32	1	f.zook	34	2601	7
103113	12:32	1	f.bleel	35	6167	5
103113	12:32	1	f.thweem	36	2416	4
103113	12:32	1	f.nashe	37	2245	6
103113	12:32	1	f.flabe	38	2024	4
103113	12:32	1	f.sleel	39	5381	5
103113	12:32	1	f.smeeth	40	6741	4
103113	12:32	1	f.speeth	41	7614	5
103113	12:32	1	f.twabe	42	3133	4
103113	12:32	1	f.cheeth	43	2982	7
103113	12:32	1	f.flooge	44	4164	6
103113	12:32	1	f.frathe	45	6628	4
103113	12:32	1	f.throke	46	3050	4
103113	12:32	1	f.krooth	47	3350	5
103113	12:32	1	f.smave	48	3022	6
103113	12:32	1	f.kwoose	49	2387	7
103113	12:32	1	f.bloshe	50	2170	7
103113	12:32	1	f.twoche	51	2569	4
103113	12:32	1	f.dweeth	52	4440	3
103113	12:32	1	f.zate	53	4733	3
103113	12:32	1	f.thoot	54	4919	5
103113	12:32	1	f.nobe	55	2840	4
103113	12:32	1	f.sheese	56	4229	4
103113	12:32	1	f.yose	57	2498	7
103113	12:32	1	f.draze	58	2540	5
103113	12:32	1	f.teef	59	3101	6
103113	12:32	1	f.dwoosh	60	2903	6
103113	12:32	1	howtype	1	14615	5
