date	time	subject	trialcode	trialnum	latency	response
102413	13:57	1	speed	1	2839	30
102413	13:57	1	error	2	2052	90
102413	13:57	1	whichhand	3	9040	right
102413	13:57	1	f.vome	1	15762	4
102413	13:57	1	f.shreef	2	4741	2
102413	13:57	1	f.gware	3	7287	5
102413	13:57	1	f.snache	4	5211	6
102413	13:57	1	f.thwole	5	6153	4
102413	13:57	1	f.prothe	6	3946	5
102413	13:57	1	f.yogue	7	2842	7
102413	13:57	1	f.drase	8	5543	6
102413	13:57	1	f.jathe	9	3927	8
102413	13:57	1	f.noog	10	3760	8
102413	13:57	1	f.thweet	11	2616	6
102413	13:57	1	f.kwase	12	3709	6
102413	13:57	1	f.sneege	13	2775	5
102413	13:57	1	f.glook	14	2766	4
102413	13:57	1	f.thrache	15	3989	4
102413	13:57	1	f.dague	16	5260	3
102413	13:57	1	f.gooth	17	7880	5
102413	13:57	1	f.smeege	18	2316	6
102413	13:57	1	f.dwone	19	2813	5
102413	13:57	1	f.plake	20	3058	5
102413	13:57	1	f.thwafe	21	7094	6
102413	13:57	1	f.thrathe	22	9273	5
102413	13:57	1	f.gwoot	23	2774	7
102413	13:57	1	f.sheeg	24	2470	5
102413	13:57	1	f.pogue	25	4113	5
102413	13:57	1	f.zade	26	1842	6
102413	13:57	1	f.frooth	27	11894	6
102413	13:57	1	f.swabe	28	3034	5
102413	13:57	1	f.thweeth	29	3439	7
102413	13:57	1	f.brooge	30	3850	7
102413	13:57	1	f.preege	31	4767	6
102413	13:57	1	f.shroge	32	4719	3
102413	13:57	1	f.thrope	33	6521	4
102413	13:57	1	f.glooth	34	4547	3
102413	13:57	1	f.zathe	35	5331	4
102413	13:57	1	f.swathe	36	3813	5
102413	13:57	1	f.pleel	37	3139	4
102413	13:57	1	f.neef	38	4859	5
102413	13:57	1	f.proop	39	3647	5
102413	13:57	1	f.seeg	40	3219	7
102413	13:57	1	f.dreeze	41	2961	4
102413	13:57	1	f.krache	42	6192	4
102413	13:57	1	f.chood	43	3999	6
102413	13:57	1	f.zare	44	4173	5
102413	13:57	1	f.glashe	45	3189	4
102413	13:57	1	f.gleeth	46	2595	5
102413	13:57	1	f.dwague	47	4713	5
102413	13:57	1	f.zope	48	2978	4
102413	13:57	1	f.tweer	49	4929	2
102413	13:57	1	f.neesh	50	3578	4
102413	13:57	1	f.throle	51	3209	6
102413	13:57	1	f.shrothe	52	2111	1
102413	13:57	1	f.twooge	53	5664	4
102413	13:57	1	f.wooth	54	2276	6
102413	13:57	1	f.joom	55	2663	7
102413	13:57	1	f.twoom	56	3474	6
102413	13:57	1	f.skeeve	57	3446	6
102413	13:57	1	f.twave	58	3482	5
102413	13:57	1	f.speeve	59	3340	6
102413	13:57	1	f.joot	60	2021	7
102413	13:57	1	r.cabinet	1	5700	4
102413	13:57	1	r.priest	2	3143	5
102413	13:57	1	r.queen	3	3127	6
102413	13:57	1	r.hurt	4	3768	5
102413	13:57	1	r.happy	5	12447	7
102413	13:57	1	r.messy	6	18758	4
102413	13:57	1	r.cake	7	2418	6
102413	13:57	1	r.fish	8	3376	8
102413	13:57	1	r.loved	9	4151	8
102413	13:57	1	r.assault	10	10087	5
102413	13:57	1	r.orchestra	11	5516	2
102413	13:57	1	r.rape	12	2142	2
102413	13:57	1	r.cannon	13	7750	6
102413	13:57	1	r.grateful	14	2832	6
102413	13:57	1	r.pet	15	3837	7
102413	13:57	1	r.whore	16	2362	1
102413	13:57	1	r.passion	17	10568	8
102413	13:57	1	r.mind	18	3402	6
102413	13:57	1	r.stiff	19	1897	4
102413	13:57	1	r.pus	20	2746	1
102413	13:57	1	r.hairpin	21	10442	4
102413	13:57	1	r.black	22	2632	5
102413	13:57	1	r.free	23	8709	9
102413	13:57	1	r.odd	24	7880	6
102413	13:57	1	r.learn	25	4636	5
102413	13:57	1	r.penthouse	26	5017	3
102413	13:57	1	r.cook	27	5447	7
102413	13:57	1	r.vomit	28	2292	2
102413	13:57	1	r.dollar	29	3598	5
102413	13:57	1	r.sunlight	30	4475	6
102413	13:57	1	r.irritate	31	4952	2
102413	13:57	1	r.detail	32	4272	3
102413	13:57	1	r.metal	33	2692	9
102413	13:57	1	r.gymnast	34	4478	7
102413	13:57	1	r.useless	35	2546	1
102413	13:57	1	r.candy	36	6657	6
102413	13:57	1	r.luscious	37	2391	8
102413	13:57	1	r.rude	38	7013	4
102413	13:57	1	r.smallpox	39	3875	4
102413	13:57	1	r.water	40	5334	5
102413	13:57	1	r.corrupt	41	2063	4
102413	13:57	1	r.friendly	42	6043	6
102413	13:57	1	r.mangle	43	6328	5
102413	13:57	1	r.profit	44	8641	6
102413	13:57	1	r.obscene	45	6543	5
102413	13:57	1	r.untroubled	46	13848	5
102413	13:57	1	r.glass	47	7623	5
102413	13:57	1	r.bloody	48	3350	3
102413	13:57	1	r.slave	49	5966	2
102413	13:57	1	r.humane	50	7207	3
102413	13:57	1	r.selfish	51	12838	4
102413	13:57	1	r.jug	52	4366	6
102413	13:57	1	r.hungry	53	2166	6
102413	13:57	1	r.lamp	54	9148	6
102413	13:57	1	r.memories	55	9982	7
102413	13:57	1	r.agony	56	5127	4
102413	13:57	1	r.pinch	57	4481	4
102413	13:57	1	r.magical	58	8820	6
102413	13:57	1	r.grass	59	2163	5
102413	13:57	1	r.drown	60	3226	3
102413	13:57	1	howtype	1	18589	4
102513	11:57	1	speed	1	2604	34
102513	11:57	1	error	2	2420	100
102513	11:57	1	whichhand	3	9139	right
102513	11:57	1	r.needle	1	7946	5
102513	11:59	1	speed	1	3069	34
102513	11:59	1	error	2	2111	100
102513	11:59	1	whichhand	3	6195	right
102513	11:59	1	r.kick	1	3983	5
102513	11:59	1	r.snow	2	3263	4
102513	11:59	1	r.louse	3	3066	5
102513	11:59	1	r.good	4	4334	7
102513	11:59	1	r.annoy	5	3670	2
102513	11:59	1	r.silk	6	3450	7
102513	11:59	1	r.arrogant	7	3030	3
102513	11:59	1	r.color	8	3451	8
102513	11:59	1	r.elevator	9	1887	5
102513	11:59	1	r.outstanding	10	2489	9
102513	11:59	1	r.writer	11	2516	2
102513	11:59	1	r.jug	12	2797	5
102513	11:59	1	r.insect	13	2347	2
102513	11:59	1	r.mantel	14	2858	5
102513	11:59	1	r.bland	15	2062	5
102513	11:59	1	r.abuse	16	2065	1
102513	11:59	1	r.slap	17	2274	3
102513	11:59	1	r.hug	18	2159	9
102513	11:59	1	r.FALSE	19	2527	1
102513	11:59	1	r.passage	20	2855	5
102513	11:59	1	r.dancer	21	2251	7
102513	11:59	1	r.romantic	22	2687	6
102513	11:59	1	r.jelly	23	2249	5
102513	11:59	1	r.addict	24	2277	4
102513	11:59	1	r.greet	25	2847	6
102513	11:59	1	r.bloody	26	2955	1
102513	11:59	1	r.cheer	27	4739	3
102513	11:59	1	r.sweetheart	28	1676	5
102513	11:59	1	r.cozy	29	2039	9
102513	11:59	1	r.justice	30	2979	9
102513	11:59	1	r.invader	31	3082	3
102513	11:59	1	r.dollar	32	2588	8
102513	11:59	1	r.orchestra	33	2707	5
102513	11:59	1	r.nurse	34	2493	5
102513	11:59	1	r.hotel	35	1574	5
102513	11:59	1	r.crushed	36	1717	2
102513	11:59	1	r.umbrella	37	3238	5
102513	11:59	1	r.blasphemy	38	5123	5
102513	11:59	1	r.autumn	39	2445	8
102513	11:59	1	r.ache	40	2809	1
102513	11:59	1	r.village	41	2535	5
102513	11:59	1	r.ambulance	42	1783	1
102513	11:59	1	r.rat	43	2197	1
102513	11:59	1	r.bastard	44	1907	1
102513	11:59	1	r.iron	45	2181	5
102513	11:59	1	r.injury	46	3323	2
102513	11:59	1	r.hat	47	1356	5
102513	11:59	1	r.bed	48	2780	9
102513	11:59	1	r.vacation	49	1538	9
102513	11:59	1	r.bored	50	3354	2
102513	11:59	1	r.politeness	51	2587	9
102513	11:59	1	r.liberty	52	1545	9
102513	11:59	1	r.debt	53	1368	1
102513	11:59	1	r.clock	54	2679	3
102513	11:59	1	r.awed	55	1850	5
102513	11:59	1	r.fat	56	2293	2
102513	11:59	1	r.angel	57	1943	8
102513	11:59	1	r.doll	58	1335	5
102513	11:59	1	r.coast	59	3686	7
102513	11:59	1	r.grateful	60	2154	8
102513	11:59	1	f.doog	1	3588	5
102513	11:59	1	f.plake	2	3458	5
102513	11:59	1	f.drore	3	5902	4
102513	11:59	1	f.throove	4	3241	5
102513	11:59	1	f.gloof	5	6246	7
102513	11:59	1	f.fofe	6	3079	6
102513	11:59	1	f.voshe	7	2061	3
102513	11:59	1	f.dofe	8	1744	5
102513	11:59	1	f.glase	9	1448	5
102513	11:59	1	f.trame	10	836	5
102513	11:59	1	f.thwoove	11	2519	5
102513	11:59	1	f.thague	12	3057	5
102513	11:59	1	f.shrashe	13	1637	3
102513	11:59	1	f.yoze	14	3080	5
102513	11:59	1	f.pabe	15	1807	5
102513	11:59	1	f.klafe	16	4438	3
102513	11:59	1	f.kwape	17	8340	5
102513	11:59	1	f.froge	18	3757	4
102513	11:59	1	f.flope	19	4285	3
102513	11:59	1	f.thwole	20	1077	5
102513	11:59	1	f.kweese	21	1162	5
102513	11:59	1	f.broob	22	5177	5
102513	11:59	1	f.threege	23	1312	5
102513	11:59	1	f.snome	24	1704	5
102513	11:59	1	f.yeege	25	5522	6
102513	11:59	1	f.swage	26	2939	7
102513	11:59	1	f.jooth	27	5124	7
102513	11:59	1	f.skoog	28	2900	5
102513	11:59	1	f.zeege	29	2639	3
102513	11:59	1	f.yashe	30	3548	2
102513	11:59	1	f.troog	31	1460	5
102513	11:59	1	f.yoom	32	1807	8
102513	11:59	1	f.gware	33	2532	5
102513	11:59	1	f.glafe	34	5173	3
102513	11:59	1	f.dreef	35	2205	3
102513	11:59	1	f.slose	36	2075	3
102513	11:59	1	f.chame	37	3118	4
102513	11:59	1	f.grache	38	3511	6
102513	11:59	1	f.yeech	39	2265	5
102513	11:59	1	f.broor	40	3420	9
102513	11:59	1	f.breeg	41	1576	3
102513	11:59	1	f.gwode	42	1647	9
102513	11:59	1	f.shreech	43	1210	5
102513	11:59	1	f.wathe	44	1583	3
102513	11:59	1	f.shrache	45	2925	9
102513	11:59	1	f.kwoob	46	3150	9
102513	11:59	1	f.smeeze	47	2174	5
102513	11:59	1	f.thoop	48	1701	8
102513	11:59	1	f.thwoom	49	2831	8
102513	11:59	1	f.tweem	50	2155	7
102513	11:59	1	f.mabe	51	2035	3
102513	11:59	1	f.stache	52	2800	8
102513	11:59	1	f.sweege	53	2523	7
102513	11:59	1	f.tweech	54	5524	3
102513	11:59	1	f.moof	55	1311	4
102513	11:59	1	f.thwoot	56	1273	6
102513	11:59	1	f.spooth	57	2176	8
102513	11:59	1	f.snoon	58	1374	1
102513	11:59	1	f.smeege	59	1197	2
102513	11:59	1	f.glooch	60	1179	3
102513	11:59	1	howtype	1	7384	4
102513	12:55	1	speed	1	2640	53
102513	12:55	1	error	2	1736	86
102513	12:55	1	whichhand	3	7915	right 
102513	12:55	1	f.threesh	1	11551	3
102513	12:55	1	f.throle	2	5138	4
102513	12:55	1	f.looch	3	2635	1
102513	12:55	1	f.snoge	4	2344	1
102513	12:55	1	f.gache	5	4296	4
102513	12:55	1	f.stase	6	2082	5
102513	12:55	1	f.sweem	7	1684	6
102513	12:55	1	f.feef	8	3223	5
102513	12:55	1	f.foof	9	1764	6
102513	12:55	1	f.smeeg	10	3211	6
102513	12:55	1	f.swoge	11	1968	7
102513	12:55	1	f.droze	12	2263	6
102513	12:55	1	f.stooth	13	1602	5
102513	12:55	1	f.shraze	14	1808	5
102513	12:55	1	f.dwooth	15	5013	6
102513	12:55	1	f.kwoove	16	2091	6
102513	12:55	1	f.tweeb	17	1830	5
102513	12:55	1	f.dabe	18	3234	4
102513	12:55	1	f.twafe	19	1751	5
102513	12:55	1	f.klooch	20	2046	2
102513	12:55	1	f.throgue	21	4626	5
102513	12:55	1	f.spave	22	3511	5
102513	12:55	1	f.kwoog	23	2303	6
102513	12:55	1	f.krobe	24	2170	6
102513	12:55	1	f.smase	25	2881	5
102513	12:55	1	f.twage	26	2572	5
102513	12:55	1	f.dwone	27	9819	5
102513	12:55	1	f.thwook	28	3993	5
102513	12:55	1	f.ploove	29	1697	4
102513	12:55	1	f.brooge	30	2058	4
102513	12:55	1	f.gwose	31	1846	4
102513	12:55	1	f.thashe	32	3290	3
102513	12:55	1	f.thweeze	33	1490	3
102513	12:55	1	f.vage	34	2685	6
102513	12:55	1	f.foog	35	1862	4
102513	12:55	1	f.gwone	36	2049	4
102513	12:55	1	f.bloosh	37	6045	6
102513	12:55	1	f.gweet	38	1842	6
102513	12:55	1	f.klole	39	2862	6
102513	12:55	1	f.gweer	40	1801	5
102513	12:55	1	f.yoose	41	3183	5
102513	12:55	1	f.shreeve	42	1390	6
102513	12:55	1	f.frape	43	1892	3
102513	12:55	1	f.throod	44	1229	2
102513	12:55	1	f.gweeve	45	1386	3
102513	12:55	1	f.froog	46	2903	5
102513	12:55	1	f.joom	47	2361	4
102513	12:55	1	f.kwome	48	3528	5
102513	12:55	1	f.swafe	49	2233	6
102513	12:55	1	f.zathe	50	3029	5
102513	12:55	1	f.dwade	51	4690	5
102513	12:55	1	f.thwole	52	1317	4
102513	12:55	1	f.snoose	53	1950	6
102513	12:55	1	f.yoon	54	2189	6
102513	12:55	1	f.shoob	55	1948	6
102513	12:55	1	f.sweese	56	1595	6
102513	12:55	1	f.spabe	57	1569	5
102513	12:55	1	f.dache	58	1352	4
102513	12:55	1	f.plake	59	1695	4
102513	12:55	1	f.fague	60	2353	4
102513	12:55	1	r.measles	1	2439	4
102513	12:55	1	r.toxic	2	1291	4
102513	12:55	1	r.contents	3	2549	6
102513	12:55	1	r.snuggle	4	1781	8
102513	12:55	1	r.radio	5	1411	9
102513	12:55	1	r.tidy	6	1536	9
102513	12:55	1	r.loneliness	7	2232	7
102513	12:55	1	r.wasp	8	2357	6
102513	12:55	1	r.enraged	9	5669	5
102513	12:55	1	r.vagina	10	1497	4
102513	12:55	1	r.taste	11	2226	8
102513	12:55	1	r.chance	12	1854	8
102513	12:55	1	r.manner	13	1250	8
102513	12:55	1	r.confident	14	1134	8
102513	12:55	1	r.irritate	15	2174	4
102513	12:55	1	r.sunlight	16	1341	8
102513	12:55	1	r.nurse	17	1148	8
102513	12:55	1	r.scissors	18	1818	5
102513	12:55	1	r.malice	19	1935	4
102513	12:55	1	r.flag	20	1583	8
102513	12:55	1	r.couple	21	1125	8
102513	12:55	1	r.kind	22	1646	8
102513	12:55	1	r.daylight	23	1362	9
102513	12:55	1	r.nectar	24	1769	6
102513	12:55	1	r.astonished	25	1231	8
102513	12:55	1	r.fat	26	1643	5
102513	12:55	1	r.treat	27	1022	8
102513	12:55	1	r.pollute	28	1387	4
102513	12:55	1	r.valentine	29	1081	8
102513	12:55	1	r.trauma	30	1139	4
102513	12:55	1	r.restaurant	31	1187	8
102513	12:55	1	r.melody	32	1225	9
102513	12:55	1	r.patriot	33	1918	8
102513	12:55	1	r.save	34	1351	8
102513	12:55	1	r.hungry	35	1158	8
102513	12:55	1	r.modest	36	1350	8
102513	12:55	1	r.silly	37	1165	9
102513	12:55	1	r.applause	38	1692	8
102513	12:55	1	r.dollar	39	1326	8
102513	12:55	1	r.mother	40	1247	9
102513	12:55	1	r.reward	41	1034	8
102513	12:55	1	r.grin	42	1030	8
102513	12:55	1	r.curtains	43	2074	5
102513	12:55	1	r.vomit	44	1661	1
102513	12:55	1	r.roach	45	1032	1
102513	12:55	1	r.lamb	46	1988	5
102513	12:55	1	r.honest	47	1074	8
102513	12:55	1	r.ignorance	48	2260	4
102513	12:55	1	r.wife	49	2615	5
102513	12:55	1	r.torture	50	1757	2
102513	12:55	1	r.ink	51	2435	6
102513	12:55	1	r.invader	52	1873	3
102513	12:55	1	r.crime	53	1380	4
102513	12:55	1	r.muddy	54	1290	5
102513	12:55	1	r.angel	55	1524	7
102513	12:55	1	r.miracle	56	1261	9
102513	12:55	1	r.virgin	57	1423	8
102513	12:55	1	r.method	58	2620	8
102513	12:55	1	r.pig	59	2409	6
102513	12:55	1	r.infant	60	1415	8
102513	12:55	1	howtype	1	5138	6
102513	13:27	1	speed	1	3186	38
102513	13:27	1	error	2	1811	84
102513	13:27	1	whichhand	3	6841	right
102513	13:27	1	r.fantasy	1	4432	8
102513	13:27	1	r.salad	2	8069	7
102513	13:27	1	r.respectful	3	2513	8
102513	13:27	1	r.outrage	4	2747	4
102513	13:27	1	r.desire	5	2227	8
102513	13:27	1	r.incentive	6	2783	7
102513	13:27	1	r.home	7	1614	8
102513	13:27	1	r.lantern	8	2459	5
102513	13:27	1	r.wife	9	1847	8
102513	13:27	1	r.death	10	1946	3
102513	13:27	1	r.spouse	11	2034	7
102513	13:27	1	r.method	12	2094	5
102513	13:27	1	r.talent	13	1640	6
102513	13:27	1	r.item	14	1428	5
102513	13:27	1	r.cat	15	1760	6
102513	13:27	1	r.ace	16	1615	7
102513	13:27	1	r.doctor	17	2612	6
102513	13:27	1	r.garden	18	1785	4
102513	13:27	1	r.god	19	1615	7
102513	13:27	1	r.lion	20	2108	6
102513	13:27	1	r.measles	21	2822	3
102513	13:27	1	r.vehicle	22	2410	5
102513	13:27	1	r.quality	23	1600	6
102513	13:27	1	r.murderer	24	2149	4
102513	13:27	1	r.astronaut	25	2125	3
102513	13:27	1	r.key	26	1726	6
102513	13:27	1	r.blackmail	27	2958	5
102513	13:27	1	r.lost	28	2151	3
102513	13:27	1	r.pus	29	2438	3
102513	13:27	1	r.delayed	30	2019	3
102513	13:27	1	r.rabies	31	1544	2
102513	13:27	1	r.hand	32	1983	5
102513	13:27	1	r.embattled	33	2318	6
102513	13:27	1	r.snake	34	1578	4
102513	13:27	1	r.voyage	35	3483	6
102513	13:27	1	r.accident	36	2006	3
102513	13:27	1	r.acceptance	37	3124	3
102513	13:27	1	r.embarrassed	38	2189	2
102513	13:27	1	r.startled	39	2132	4
102513	13:27	1	r.car	40	2308	5
102513	13:27	1	r.paint	41	3718	6
102513	13:27	1	r.diamond	42	1767	8
102513	13:27	1	r.betray	43	2885	3
102513	13:27	1	r.cemetery	44	1233	4
102513	13:27	1	r.boxer	45	2253	4
102513	13:27	1	r.crisis	46	2984	4
102513	13:27	1	r.passion	47	3759	6
102513	13:27	1	r.busybody	48	2567	6
102513	13:27	1	r.beggar	49	3382	3
102513	13:27	1	r.natural	50	6085	5
102513	13:27	1	r.revolt	51	2296	5
102513	13:27	1	r.bathroom	52	2170	3
102513	13:27	1	r.idol	53	1449	6
102513	13:27	1	r.refreshment	54	1788	8
102513	13:27	1	r.cane	55	2115	4
102513	13:27	1	r.humiliate	56	2628	2
102513	13:27	1	r.mother	57	2480	6
102513	13:27	1	r.putrid	58	3875	5
102513	13:27	1	r.angry	59	1758	3
102513	13:27	1	r.carcass	60	1902	4
102513	13:27	1	f.nooth	1	5003	4
102513	13:27	1	f.dwaze	2	3625	3
102513	13:27	1	f.skave	3	3431	2
102513	13:27	1	f.pleer	4	2811	6
102513	13:27	1	f.zeek	5	2721	4
102513	13:27	1	f.theed	6	2378	6
102513	13:27	1	f.nooge	7	1824	3
102513	13:27	1	f.shroot	8	2204	4
102513	13:27	1	f.speesh	9	2130	6
102513	13:27	1	f.dwade	10	2674	4
102513	13:27	1	f.shage	11	1421	7
102513	13:27	1	f.zoche	12	2266	4
102513	13:27	1	f.gwone	13	3197	4
102513	13:27	1	f.shreeb	14	2010	6
102513	13:27	1	f.gweed	15	2791	7
102513	13:27	1	f.slache	16	1677	3
102513	13:27	1	f.shrase	17	3328	6
102513	13:27	1	f.gwoove	18	2528	7
102513	13:27	1	f.zooth	19	1561	4
102513	13:27	1	f.kweem	20	3776	6
102513	13:27	1	f.gweef	21	3142	4
102513	13:27	1	f.proche	22	3679	6
102513	13:27	1	f.gwoose	23	1913	7
102513	13:27	1	f.teege	24	3778	5
102513	13:27	1	f.thoof	25	3409	3
102513	13:27	1	f.lole	26	1903	7
102513	13:27	1	f.smeef	27	2192	8
102513	13:27	1	f.thwofe	28	3231	6
102513	13:27	1	f.dafe	29	1707	4
102513	13:27	1	f.spoge	30	1819	3
102513	13:27	1	f.shrooch	31	1664	6
102513	13:27	1	f.shroof	32	2931	6
102513	13:27	1	f.jame	33	1635	7
102513	13:27	1	f.kleeb	34	2128	6
102513	13:27	1	f.kweed	35	2352	8
102513	13:27	1	f.zeesh	36	3720	4
102513	13:27	1	f.pleef	37	2304	7
102513	13:27	1	f.plooth	38	2091	6
102513	13:27	1	f.smeesh	39	1892	3
102513	13:27	1	f.flape	40	1831	3
102513	13:27	1	f.skoshe	41	2875	6
102513	13:27	1	f.sloose	42	3678	3
102513	13:27	1	f.smoosh	43	2081	6
102513	13:27	1	f.krooth	44	1732	4
102513	13:27	1	f.sloge	45	2164	2
102513	13:27	1	f.freeb	46	1891	6
102513	13:27	1	f.slage	47	2548	2
102513	13:27	1	f.snofe	48	1725	4
102513	13:27	1	f.threef	49	1902	3
102513	13:27	1	f.throoth	50	3991	5
102513	13:27	1	f.gwache	51	2267	6
102513	13:27	1	f.doof	52	2622	2
102513	13:27	1	f.glooge	53	2450	7
102513	13:27	1	f.yeef	54	4023	4
102513	13:27	1	f.skobe	55	3181	6
102513	13:27	1	f.dweet	56	3067	4
102513	13:27	1	f.plope	57	2135	3
102513	13:27	1	f.thrope	58	8551	4
102513	13:27	1	f.dwase	59	4889	3
102513	13:27	1	f.shose	60	3004	7
102513	13:27	1	howtype	1	7345	6
102513	13:57	1	speed	1	2983	23
102513	13:57	1	error	2	2031	95
102513	13:57	1	whichhand	3	8092	left
102513	13:57	1	f.krabe	1	11121	5
102513	13:57	1	f.thweed	2	7837	4
102513	13:57	1	f.thweem	3	6715	1
102513	13:57	1	f.droog	4	8814	5
102513	13:57	1	f.stague	5	4533	5
102513	13:57	1	f.boosh	6	4014	6
102513	13:57	1	f.yone	7	4020	5
102513	13:57	1	f.mothe	8	5529	3
102513	13:57	1	f.nooth	9	4787	5
102513	13:57	1	f.seesh	10	8074	4
102513	13:57	1	f.thwage	11	4599	5
102513	13:57	1	f.gwane	12	3237	5
102513	13:57	1	f.preeth	13	3754	6
102513	13:57	1	f.kloche	14	6090	2
102513	13:57	1	f.dothe	15	8574	7
102513	13:57	1	f.bleeve	16	8119	5
102513	13:57	1	f.teeve	17	4842	5
102513	13:57	1	f.thwode	18	7975	4
102513	13:57	1	f.swoove	19	2967	8
102513	13:57	1	f.shrote	20	9742	1
102513	13:57	1	f.sneeg	21	5569	3
102513	13:57	1	f.klode	22	3001	3
102513	13:57	1	f.zoot	23	2695	7
102513	13:57	1	f.skeek	24	4432	6
102513	13:57	1	f.doof	25	3197	2
102513	13:57	1	f.skeeb	26	1819	5
102513	13:57	1	f.kwoob	27	6568	8
102513	13:57	1	f.geech	28	2304	5
102513	13:57	1	f.zave	29	5018	6
102513	13:57	1	f.slogue	30	3254	1
102513	13:57	1	f.kweese	31	2244	5
102513	13:57	1	f.gweege	32	1367	5
102513	13:57	1	f.shreege	33	3647	6
102513	13:57	1	f.flofe	34	2779	4
102513	13:57	1	f.gooth	35	2201	5
102513	13:57	1	f.blooth	36	2455	8
102513	13:57	1	f.throod	37	2227	5
102513	13:57	1	f.shroche	38	4247	3
102513	13:57	1	f.wathe	39	3076	7
102513	13:57	1	f.slobe	40	2751	1
102513	13:57	1	f.smafe	41	2871	5
102513	13:57	1	f.joog	42	1962	5
102513	13:57	1	f.throor	43	2441	5
102513	13:57	1	f.thade	44	5764	5
102513	13:57	1	f.yooch	45	1236	5
102513	13:57	1	f.draze	46	3328	4
102513	13:57	1	f.prooth	47	2336	5
102513	13:57	1	f.spome	48	3297	4
102513	13:57	1	f.thwoze	49	4123	1
102513	13:57	1	f.spage	50	1526	5
102513	13:57	1	f.flabe	51	3109	1
102513	13:57	1	f.gweek	52	5798	7
102513	13:57	1	f.krooth	53	1638	5
102513	13:57	1	f.smape	54	1506	5
102513	13:57	1	f.gwake	55	2019	5
102513	13:57	1	f.vafe	56	1920	4
102513	13:57	1	f.glafe	57	1425	5
102513	13:57	1	f.slool	58	4342	3
102513	13:57	1	f.troke	59	2518	5
102513	13:57	1	f.glase	60	2688	9
102513	13:57	1	r.twilight	1	2232	9
102513	13:57	1	r.rage	2	2670	1
102513	13:57	1	r.curtains	3	2689	5
102513	13:57	1	r.lawsuit	4	4019	1
102513	13:57	1	r.young	5	2193	8
102513	13:57	1	r.boxer	6	2759	5
102513	13:57	1	r.malice	7	3831	3
102513	13:57	1	r.eat	8	2010	9
102513	13:57	1	r.robber	9	2537	1
102513	13:57	1	r.rabbit	10	1873	8
102513	13:57	1	r.ambulance	11	5012	5
102513	13:57	1	r.lavish	12	3098	5
102513	13:57	1	r.health	13	2132	9
102513	13:57	1	r.vigorous	14	2532	5
102513	13:57	1	r.rancid	15	4717	3
102513	13:57	1	r.travel	16	3271	7
102513	13:57	1	r.admired	17	3178	8
102513	13:57	1	r.vomit	18	3241	1
102513	13:57	1	r.outstanding	19	2854	5
102513	13:57	1	r.umbrella	20	2441	6
102513	13:57	1	r.pet	21	2444	9
102513	13:57	1	r.hairdryer	22	3881	5
102513	13:57	1	r.punishment	23	3876	2
102513	13:57	1	r.astronaut	24	2951	8
102513	13:57	1	r.bowl	25	3167	7
102513	13:57	1	r.unfaithful	26	3526	3
102513	13:57	1	r.aggressive	27	2807	1
102513	13:57	1	r.sour	28	2141	3
102513	13:57	1	r.triumphant	29	2869	5
102513	13:57	1	r.vandal	30	2073	1
102513	13:57	1	r.betray	31	2763	2
102513	13:57	1	r.lost	32	4531	6
102513	13:57	1	r.curious	33	2556	6
102513	13:57	1	r.morbid	34	2044	4
102513	13:57	1	r.strong	35	3653	5
102513	13:57	1	r.tragedy	36	5545	5
102513	13:57	1	r.venom	37	3899	4
102513	13:57	1	r.demon	38	2172	2
102513	13:57	1	r.handsome	39	2772	7
102513	13:57	1	r.coarse	40	3187	4
102513	13:57	1	r.inspired	41	2633	7
102513	13:57	1	r.justice	42	2446	5
102513	13:57	1	r.dirt	43	1883	5
102513	13:57	1	r.sickness	44	3195	2
102513	13:57	1	r.lump	45	2625	4
102513	13:57	1	r.space	46	4527	8
102513	13:57	1	r.dump	47	2536	5
102513	13:57	1	r.ache	48	2488	3
102513	13:57	1	r.detail	49	2650	7
102513	13:57	1	r.surprised	50	5478	7
102513	13:57	1	r.legend	51	3346	5
102513	13:57	1	r.relaxed	52	1978	6
102513	13:57	1	r.ridicule	53	3215	5
102513	13:57	1	r.melody	54	2566	9
102513	13:57	1	r.kerchief	55	2333	6
102513	13:57	1	r.radiator	56	2485	5
102513	13:57	1	r.leisurely	57	1936	7
102513	13:57	1	r.useful	58	1904	6
102513	13:57	1	r.lust	59	2538	5
102513	13:57	1	r.pamphlet	60	2754	5
102513	13:57	1	howtype	1	21905	4
102513	14:28	1	speed	1	3167	36
102513	14:28	1	error	2	2159	88
102513	14:28	1	whichhand	3	7560	right
102513	14:28	1	f.veef	1	10365	5
102513	14:28	1	f.prathe	2	11568	6
102513	14:28	1	f.lashe	3	9473	5
102513	14:28	1	f.throog	4	4566	4
102513	14:28	1	f.fache	5	3037	6
102513	14:28	1	f.shrore	6	8034	5
102513	14:28	1	f.froshe	7	5744	5
102513	14:28	1	f.thwoon	8	4833	4
102513	14:28	1	f.vake	9	5235	6
102513	14:28	1	f.nabe	10	6302	4
102513	14:28	1	f.dwoose	11	3898	4
102513	14:28	1	f.joot	12	9716	5
102513	14:28	1	f.sloor	13	9440	3
102513	14:28	1	f.yooze	14	6646	4
102513	14:28	1	f.kogue	15	6279	5
102513	14:28	1	f.smoop	16	4199	3
102513	14:28	1	f.freege	17	3082	6
102513	14:28	1	f.dweese	18	3518	5
102513	14:28	1	f.ploove	19	3462	5
102513	14:28	1	f.twobe	20	2419	3
102513	14:28	1	f.veeb	21	3887	6
102513	14:28	1	f.kroshe	22	3755	6
102513	14:28	1	f.brope	23	3347	5
102513	14:28	1	f.dwove	24	2443	6
102513	14:28	1	f.throosh	25	6421	9
102513	14:28	1	f.thrave	26	8044	6
102513	14:28	1	f.vook	27	3217	5
102513	14:28	1	f.gwogue	28	3535	3
102513	14:28	1	f.drare	29	2855	5
102513	14:28	1	f.swale	30	3371	6
102513	14:28	1	f.gwooch	31	8802	6
102513	14:28	1	f.yobe	32	3466	5
102513	14:28	1	f.prate	33	5950	6
102513	14:28	1	f.gwoze	34	1270	4
102513	14:28	1	f.pleep	35	2330	7
102513	14:28	1	f.sweeze	36	4057	4
102513	14:28	1	f.kweesh	37	3997	6
102513	14:28	1	f.broob	38	1506	5
102513	14:28	1	f.thwore	39	2106	8
102513	14:28	1	f.thwone	40	2484	6
102513	14:28	1	f.drogue	41	4238	6
102513	14:28	1	f.prooge	42	1946	4
102513	14:28	1	f.twoop	43	1370	4
102513	14:28	1	f.smeege	44	1880	4
102513	14:28	1	f.trogue	45	2435	5
102513	14:28	1	f.blave	46	4215	4
102513	14:28	1	f.sheech	47	1590	4
102513	14:28	1	f.neef	48	2395	5
102513	14:28	1	f.sleeb	49	3193	3
102513	14:28	1	f.leel	50	2687	7
102513	14:28	1	f.smeese	51	1666	4
102513	14:28	1	f.swoze	52	9364	5
102513	14:28	1	f.twape	53	8693	8
102513	14:28	1	f.throme	54	5321	5
102513	14:28	1	f.mashe	55	5500	4
102513	14:28	1	f.smoove	56	4142	6
102513	14:28	1	f.smame	57	2302	4
102513	14:28	1	f.stoshe	58	4280	6
102513	14:28	1	f.sneed	59	3043	6
102513	14:28	1	f.krooth	60	2335	5
102513	14:28	1	r.ulcer	1	7056	4
102513	14:28	1	r.gentle	2	2325	5
102513	14:28	1	r.lawsuit	3	2166	4
102513	14:28	1	r.indifferent	4	1189	5
102513	14:28	1	r.glacier	5	2395	6
102513	14:28	1	r.church	6	1768	5
102513	14:28	1	r.incentive	7	2935	6
102513	14:28	1	r.silly	8	2417	6
102513	14:28	1	r.family	9	1180	6
102513	14:28	1	r.joyful	10	1691	7
102513	14:28	1	r.ridicule	11	1597	4
102513	14:28	1	r.nipple	12	1859	6
102513	14:28	1	r.square	13	1102	5
102513	14:28	1	r.sugar	14	1031	5
102513	14:28	1	r.flag	15	1842	5
102513	14:28	1	r.pleasure	16	1390	6
102513	14:28	1	r.bench	17	2739	5
102513	14:28	1	r.blubber	18	1669	6
102513	14:28	1	r.knowledge	19	2584	6
102513	14:28	1	r.grief	20	1254	4
102513	14:28	1	r.timid	21	1490	5
102513	14:28	1	r.bowl	22	1548	6
102513	14:28	1	r.prick	23	2098	4
102513	14:28	1	r.owl	24	1571	7
102513	14:28	1	r.nun	25	1226	5
102513	14:28	1	r.corrupt	26	2542	6
102513	14:28	1	r.slap	27	1798	7
102513	14:28	1	r.alert	28	1972	6
102513	14:28	1	r.refreshment	29	1027	5
102513	14:28	1	r.pretty	30	1574	6
102513	14:28	1	r.egg	31	1774	5
102513	14:28	1	r.manner	32	3037	5
102513	14:28	1	r.masturbate	33	1561	5
102513	14:28	1	r.regretful	34	1520	4
102513	14:28	1	r.savior	35	1807	6
102513	14:28	1	r.imagine	36	2156	8
102513	14:28	1	r.dawn	37	1452	8
102513	14:28	1	r.dove	38	2240	7
102513	14:28	1	r.waste	39	3347	3
102513	14:28	1	r.handsome	40	1675	6
102513	14:28	1	r.elated	41	1718	7
102513	14:28	1	r.satisfied	42	2047	6
102513	14:28	1	r.bouquet	43	2466	5
102513	14:28	1	r.song	44	997	5
102513	14:28	1	r.destroy	45	1275	6
102513	14:28	1	r.irritate	46	1564	8
102513	14:28	1	r.spider	47	3524	6
102513	14:28	1	r.grenade	48	1174	6
102513	14:28	1	r.slow	49	1085	5
102513	14:28	1	r.errand	50	1423	5
102513	14:28	1	r.nature	51	1243	6
102513	14:28	1	r.comedy	52	1983	6
102513	14:28	1	r.maniac	53	1261	6
102513	14:28	1	r.invest	54	1360	5
102513	14:28	1	r.blasphemy	55	1896	6
102513	14:28	1	r.violent	56	1224	5
102513	14:28	1	r.ecstasy	57	2061	7
102513	14:28	1	r.sapphire	58	1192	7
102513	14:28	1	r.kind	59	2005	6
102513	14:28	1	r.bliss	60	1683	7
102513	14:28	1	howtype	1	8509	5
102513	15:28	1	speed	1	2900	46
102513	15:28	1	error	2	1909	97
102513	15:28	1	whichhand	3	5695	right
102513	15:28	1	r.adorable	1	5121	9
102513	15:28	1	r.circus	2	3027	6
102513	15:28	1	r.history	3	2230	1
102513	15:28	1	r.progress	4	1884	9
102513	15:28	1	r.pride	5	1685	8
102513	15:28	1	r.journal	6	2288	6
102513	15:28	1	r.confused	7	2522	3
102513	15:28	1	r.street	8	2179	5
102513	15:28	1	r.skijump	9	3337	2
102513	15:28	1	r.victory	10	2410	9
102513	15:28	1	r.locker	11	2055	5
102513	15:28	1	r.wasp	12	2203	1
102513	15:28	1	r.circle	13	6441	7
102513	15:28	1	r.anger	14	1830	1
102513	15:28	1	r.pet	15	1803	9
102513	15:28	1	r.fight	16	1408	1
102513	15:28	1	r.menace	17	1765	2
102513	15:28	1	r.breeze	18	2020	8
102513	15:28	1	r.priest	19	1721	8
102513	15:28	1	r.ankle	20	1889	5
102513	15:28	1	r.danger	21	1300	1
102513	15:28	1	r.snob	22	1677	1
102513	15:28	1	r.moral	23	2896	7
102513	15:28	1	r.demon	24	3106	1
102513	15:28	1	r.volcano	25	2834	2
102513	15:28	1	r.brutal	26	1552	2
102513	15:28	1	r.embarrassed	27	1400	2
102513	15:28	1	r.pest	28	1773	2
102513	15:28	1	r.impotent	29	2124	3
102513	15:28	1	r.dead	30	1653	1
102513	15:28	1	r.dustpan	31	1945	5
102513	15:28	1	r.hatred	32	1568	1
102513	15:28	1	r.displeased	33	1575	1
102513	15:28	1	r.achievement	34	1526	9
102513	15:28	1	r.adult	35	1734	5
102513	15:28	1	r.insect	36	1950	4
102513	15:28	1	r.glamour	37	1358	9
102513	15:28	1	r.criminal	38	1877	1
102513	15:28	1	r.intercourse	39	4720	8
102513	15:28	1	r.coward	40	1706	2
102513	15:28	1	r.scurvy	41	2259	5
102513	15:28	1	r.misery	42	1663	2
102513	15:28	1	r.kerchief	43	1833	5
102513	15:28	1	r.unfaithful	44	1973	1
102513	15:28	1	r.sour	45	892	1
102513	15:28	1	r.triumph	46	1982	9
102513	15:28	1	r.abuse	47	1421	1
102513	15:28	1	r.blase	48	1257	5
102513	15:28	1	r.office	49	1285	5
102513	15:28	1	r.wedding	50	1383	9
102513	15:28	1	r.mantel	51	1965	5
102513	15:28	1	r.scared	52	2028	4
102513	15:28	1	r.discouraged	53	1680	2
102513	15:28	1	r.guilty	54	2786	2
102513	15:28	1	r.waterfall	55	2361	8
102513	15:28	1	r.army	56	2656	9
102513	15:28	1	r.ocean	57	1644	9
102513	15:28	1	r.humor	58	1415	9
102513	15:28	1	r.nightmare	59	1500	1
102513	15:28	1	r.swimmer	60	2046	7
102513	15:28	1	f.gwone	1	8994	1
102513	15:28	1	f.kwoop	2	1773	1
102513	15:28	1	f.spoosh	3	1788	5
102513	15:28	1	f.frafe	4	1648	4
102513	15:28	1	f.wague	5	1366	4
102513	15:28	1	f.thool	6	1389	6
102513	15:28	1	f.broog	7	1515	6
102513	15:28	1	f.trobe	8	1300	7
102513	15:28	1	f.flooth	9	1125	7
102513	15:28	1	f.throod	10	1437	4
102513	15:28	1	f.kogue	11	1249	5
102513	15:28	1	f.joob	12	1220	6
102513	15:28	1	f.kloof	13	1081	6
102513	15:28	1	f.jobe	14	1707	4
102513	15:28	1	f.bleef	15	2373	8
102513	15:28	1	f.treege	16	1324	6
102513	15:28	1	f.smoop	17	1165	7
102513	15:28	1	f.thothe	18	1187	4
102513	15:28	1	f.dwake	19	1361	8
102513	15:28	1	f.pleer	20	1504	5
102513	15:28	1	f.thooth	21	1410	6
102513	15:28	1	f.smooge	22	1334	6
102513	15:28	1	f.skoove	23	1390	6
102513	15:28	1	f.poshe	24	1179	6
102513	15:28	1	f.sleesh	25	1137	6
102513	15:28	1	f.speeth	26	1481	6
102513	15:28	1	f.snoob	27	899	6
102513	15:28	1	f.slogue	28	1284	4
102513	15:28	1	f.mafe	29	1798	1
102513	15:28	1	f.smoose	30	972	6
102513	15:28	1	f.thobe	31	1235	4
102513	15:28	1	f.plake	32	1819	5
102513	15:28	1	f.zeep	33	1516	9
102513	15:28	1	f.krache	34	1836	1
102513	15:28	1	f.prool	35	1984	8
102513	15:28	1	f.thope	36	2366	7
102513	15:28	1	f.meef	37	1981	4
102513	15:28	1	f.jothe	38	1018	6
102513	15:28	1	f.krogue	39	1448	4
102513	15:28	1	f.sneen	40	986	5
102513	15:28	1	f.throof	41	865	5
102513	15:28	1	f.dwode	42	1499	1
102513	15:28	1	f.threek	43	1213	6
102513	15:28	1	f.yoze	44	1161	6
102513	15:28	1	f.dwove	45	1248	6
102513	15:28	1	f.thweeve	46	1220	6
102513	15:28	1	f.yoob	47	1184	7
102513	15:28	1	f.spage	48	1414	4
102513	15:28	1	f.voge	49	827	4
102513	15:28	1	f.brage	50	1092	8
102513	15:28	1	f.jeef	51	1472	9
102513	15:28	1	f.weech	52	1186	4
102513	15:28	1	f.kroof	53	1024	5
102513	15:28	1	f.tware	54	949	6
102513	15:28	1	f.feeb	55	677	4
102513	15:28	1	f.trooge	56	518	5
102513	15:28	1	f.seech	57	1087	5
102513	15:28	1	f.zoof	58	1040	5
102513	15:28	1	f.snoche	59	1068	6
102513	15:28	1	f.dweel	60	974	4
102513	15:28	1	howtype	1	9396	6
102813	10:33	1	speed	1	5450	38
102813	10:33	1	error	2	3614	100
102813	10:33	1	whichhand	3	13068	right 
102813	10:33	1	f.dwoose	1	8521	5
102813	10:33	1	f.steef	2	2579	4
102813	10:33	1	f.bleesh	3	3562	6
102813	10:33	1	f.smoge	4	1914	8
102813	10:33	1	f.gwoche	5	3818	7
102813	10:33	1	f.skoof	6	7624	4
102813	10:33	1	f.smooge	7	2167	4
102813	10:33	1	f.spoot	8	3278	6
102813	10:33	1	f.theen	9	2409	8
102813	10:33	1	f.sague	10	3998	5
102813	10:33	1	f.glole	11	3236	4
102813	10:33	1	f.sweeg	12	4792	4
102813	10:33	1	f.swole	13	3254	7
102813	10:33	1	f.dogue	14	2188	5
102813	10:33	1	f.skeem	15	3281	7
102813	10:33	1	f.swoof	16	4021	5
102813	10:33	1	f.theed	17	3314	5
102813	10:33	1	f.fague	18	5252	6
102813	10:33	1	f.zooch	19	2784	7
102813	10:33	1	f.yoob	20	1887	5
102813	10:33	1	f.droose	21	2449	4
102813	10:33	1	f.plave	22	2829	6
102813	10:33	1	f.skogue	23	1834	6
102813	10:33	1	f.gleech	24	6078	6
102813	10:33	1	f.koob	25	3154	5
102813	10:33	1	f.froosh	26	2210	6
102813	10:33	1	f.yoon	27	1679	5
102813	10:33	1	f.shrool	28	1273	4
102813	10:33	1	f.tweel	29	1188	4
102813	10:33	1	f.snoose	30	2378	7
102813	10:33	1	f.kwoom	31	3216	4
102813	10:33	1	f.dooch	32	4341	4
102813	10:33	1	f.blove	33	3599	5
102813	10:33	1	f.gweef	34	2997	5
102813	10:33	1	f.throme	35	3467	5
102813	10:33	1	f.krathe	36	2966	6
102813	10:33	1	f.brabe	37	3309	6
102813	10:33	1	f.kwoove	38	2935	4
102813	10:33	1	f.prooch	39	9159	5
102813	10:33	1	f.veeb	40	2921	4
102813	10:33	1	f.groog	41	1290	4
102813	10:33	1	f.gweek	42	2316	4
102813	10:33	1	f.gwoof	43	1189	4
102813	10:33	1	f.kwooze	44	2587	6
102813	10:33	1	f.fleeve	45	2858	5
102813	10:33	1	f.prake	46	2686	5
102813	10:33	1	f.twogue	47	1416	4
102813	10:33	1	f.yeeg	48	2141	4
102813	10:33	1	f.plope	49	3517	5
102813	10:33	1	f.gwode	50	1798	5
102813	10:33	1	f.slore	51	1156	5
102813	10:33	1	f.slafe	52	1539	4
102813	10:33	1	f.vood	53	4148	6
102813	10:33	1	f.jabe	54	2772	5
102813	10:33	1	f.spoosh	55	6115	7
102813	10:33	1	f.blave	56	2613	4
102813	10:33	1	f.frape	57	4131	5
102813	10:33	1	f.gweesh	58	3620	4
102813	10:33	1	f.joosh	59	3489	4
102813	10:33	1	f.dwoove	60	1715	4
102813	10:33	1	r.immature	1	7318	4
102813	10:33	1	r.confused	2	2057	4
102813	10:33	1	r.ambulance	3	4525	3
102813	10:33	1	r.humor	4	2197	6
102813	10:33	1	r.vandal	5	3892	4
102813	10:33	1	r.love	6	1551	6
102813	10:33	1	r.custom	7	1598	5
102813	10:33	1	r.wasp	8	1700	5
102813	10:33	1	r.woman	9	3357	8
102813	10:33	1	r.proud	10	2325	4
102813	10:33	1	r.tree	11	1342	5
102813	10:33	1	r.masterful	12	2998	8
102813	10:33	1	r.metal	13	2268	5
102813	10:33	1	r.brave	14	2471	6
102813	10:33	1	r.inspire	15	2306	7
102813	10:33	1	r.loser	16	4484	5
102813	10:33	1	r.nice	17	4711	5
102813	10:33	1	r.elated	18	3537	5
102813	10:33	1	r.valentine	19	3066	6
102813	10:33	1	r.air	20	1990	5
102813	10:33	1	r.profit	21	7556	6
102813	10:33	1	r.sin	22	2020	1
102813	10:33	1	r.natural	23	2202	5
102813	10:33	1	r.insect	24	1863	5
102813	10:33	1	r.headache	25	2290	4
102813	10:33	1	r.thought	26	2172	4
102813	10:33	1	r.zest	27	1555	4
102813	10:33	1	r.gentle	28	2554	5
102813	10:33	1	r.body	29	2211	4
102813	10:33	1	r.useful	30	2272	5
102813	10:33	1	r.city	31	1178	5
102813	10:33	1	r.hurricane	32	4312	5
102813	10:33	1	r.gymnast	33	5808	3
102813	10:33	1	r.salute	34	2839	4
102813	10:33	1	r.moody	35	2363	4
102813	10:33	1	r.corner	36	1867	5
102813	10:33	1	r.tobacco	37	4174	4
102813	10:33	1	r.sugar	38	4862	6
102813	10:33	1	r.scorpion	39	2202	4
102813	10:33	1	r.chance	40	1552	5
102813	10:33	1	r.board	41	1423	5
102813	10:33	1	r.doctor	42	2636	7
102813	10:33	1	r.plant	43	2312	5
102813	10:33	1	r.museum	44	4161	7
102813	10:33	1	r.chaos	45	2913	3
102813	10:33	1	r.adult	46	1290	5
102813	10:33	1	r.serious	47	3852	5
102813	10:33	1	r.corrupt	48	2128	3
102813	10:33	1	r.ace	49	7888	3
102813	10:33	1	r.imagine	50	5796	7
102813	10:33	1	r.wish	51	1484	5
102813	10:33	1	r.sinful	52	1773	1
102813	10:33	1	r.terrified	53	2100	3
102813	10:33	1	r.impair	54	4502	4
102813	10:33	1	r.lost	55	1209	4
102813	10:33	1	r.farm	56	1358	5
102813	10:33	1	r.volcano	57	1901	5
102813	10:33	1	r.unhappy	58	1727	3
102813	10:33	1	r.obesity	59	1383	3
102813	10:33	1	r.grin	60	1901	6
102813	10:33	1	howtype	1	14277	6
102813	12:55	1	speed	1	3350	40
102813	12:55	1	error	2	2590	92
102813	12:55	1	whichhand	3	6133	right
102813	12:55	1	f.kwashe	1	12163	5
102813	12:55	1	f.dothe	2	4886	4
102813	12:55	1	f.stothe	3	5282	3
102813	12:55	1	f.spogue	4	2453	6
102813	12:55	1	f.thrashe	5	4009	2
102813	12:55	1	f.smooze	6	2918	7
102813	12:55	1	f.kwobe	7	4576	5
102813	12:55	1	f.thrache	8	3063	4
102813	12:55	1	f.dwove	9	3601	6
102813	12:55	1	f.yoze	10	4192	7
102813	12:55	1	f.throshe	11	6030	3
102813	12:55	1	f.klabe	12	2643	5
102813	12:55	1	f.klood	13	2864	9
102813	12:55	1	f.trafe	14	6107	6
102813	12:55	1	f.vome	15	1934	1
102813	12:55	1	f.sleer	16	3367	4
102813	12:55	1	f.twole	17	2166	5
102813	12:55	1	f.sneese	18	2125	4
102813	12:55	1	f.bloshe	19	1766	6
102813	12:55	1	f.snase	20	2421	5
102813	12:55	1	f.shrate	21	3522	2
102813	12:55	1	f.smeeze	22	3052	1
102813	12:55	1	f.zook	23	3184	7
102813	12:55	1	f.dwooze	24	2390	8
102813	12:55	1	f.dweel	25	2669	3
102813	12:55	1	f.mofe	26	984	5
102813	12:55	1	f.smoog	27	1950	6
102813	12:55	1	f.dwoche	28	2005	5
102813	12:55	1	f.thwood	29	3419	4
102813	12:55	1	f.thwoon	30	1281	4
102813	12:55	1	f.yate	31	2451	5
102813	12:55	1	f.mafe	32	1334	2
102813	12:55	1	f.dofe	33	2679	4
102813	12:55	1	f.thweeb	34	2361	5
102813	12:55	1	f.preeth	35	1064	5
102813	12:55	1	f.dwoke	36	1707	5
102813	12:55	1	f.bloge	37	1876	5
102813	12:55	1	f.sneef	38	4639	3
102813	12:55	1	f.snooge	39	1652	2
102813	12:55	1	f.throgue	40	2631	4
102813	12:55	1	f.threeb	41	3100	4
102813	12:55	1	f.yote	42	2486	5
102813	12:55	1	f.yague	43	4264	4
102813	12:55	1	f.gwake	44	3484	2
102813	12:55	1	f.glothe	45	2631	5
102813	12:55	1	f.preet	46	2531	3
102813	12:55	1	f.zoog	47	2612	6
102813	12:55	1	f.snove	48	4041	2
102813	12:55	1	f.dwake	49	1589	4
102813	12:55	1	f.snabe	50	4821	5
102813	12:55	1	f.thweek	51	5337	3
102813	12:55	1	f.zare	52	2779	8
102813	12:55	1	f.skoose	53	3993	7
102813	12:55	1	f.jathe	54	2456	6
102813	12:55	1	f.vofe	55	2436	5
102813	12:55	1	f.threeth	56	2489	4
102813	12:55	1	f.shrope	57	3707	2
102813	12:55	1	f.pleech	58	4461	8
102813	12:55	1	f.kreeg	59	5913	5
102813	12:55	1	f.dwashe	60	3755	5
102813	12:55	1	r.assault	1	6446	1
102813	12:55	1	r.eat	2	4315	6
102813	12:55	1	r.radiant	3	2204	8
102813	12:55	1	r.hurt	4	2866	2
102813	12:55	1	r.ugly	5	1213	1
102813	12:55	1	r.building	6	1729	5
102813	12:55	1	r.syphilis	7	3194	3
102813	12:55	1	r.snow	8	2407	6
102813	12:55	1	r.burial	9	1965	1
102813	12:55	1	r.pizza	10	1603	9
102813	12:55	1	r.embattled	11	2409	2
102813	12:55	1	r.cancer	12	1182	1
102813	12:55	1	r.dreary	13	2501	2
102813	12:55	1	r.disloyal	14	1550	1
102813	12:55	1	r.intercourse	15	3389	7
102813	12:55	1	r.evil	16	1893	3
102813	12:55	1	r.robber	17	5518	3
102813	12:55	1	r.annoy	18	6304	4
102813	12:55	1	r.privacy	19	5931	9
102813	12:55	1	r.snob	20	2357	1
102813	12:55	1	r.triumphant	21	2621	8
102813	12:55	1	r.allergy	22	2042	2
102813	12:55	1	r.prestige	23	3629	6
102813	12:55	1	r.square	24	1651	5
102813	12:55	1	r.slow	25	2287	4
102813	12:55	1	r.ankle	26	6217	3
102813	12:55	1	r.FALSE	27	3527	5
102813	12:55	1	r.poster	28	2112	5
102813	12:55	1	r.trust	29	1665	9
102813	12:55	1	r.untroubled	30	2532	6
102813	12:55	1	r.reward	31	3796	9
102813	12:55	1	r.grenade	32	2395	2
102813	12:55	1	r.rain	33	3504	7
102813	12:55	1	r.nun	34	4938	6
102813	12:55	1	r.moment	35	2708	8
102813	12:55	1	r.thought	36	1726	8
102813	12:55	1	r.intellect	37	3678	8
102813	12:55	1	r.infant	38	5217	8
102813	12:55	1	r.hate	39	1551	1
102813	12:55	1	r.thoughtful	40	2550	9
102813	12:55	1	r.skull	41	1734	1
102813	12:55	1	r.butter	42	2182	6
102813	12:55	1	r.money	43	1317	9
102813	12:55	1	r.nervous	44	2581	2
102813	12:55	1	r.bowl	45	1588	5
102813	12:55	1	r.bench	46	1490	5
102813	12:55	1	r.discomfort	47	2804	3
102813	12:55	1	r.thief	48	1746	2
102813	12:55	1	r.air	49	2354	7
102813	12:55	1	r.relaxed	50	2097	9
102813	12:55	1	r.maniac	51	4443	5
102813	12:55	1	r.medicine	52	2280	6
102813	12:55	1	r.dawn	53	2322	7
102813	12:55	1	r.present	54	2347	8
102813	12:55	1	r.smallpox	55	1771	1
102813	12:55	1	r.decorate	56	2970	8
102813	12:55	1	r.abduction	57	2153	2
102813	12:55	1	r.basket	58	2096	5
102813	12:55	1	r.fear	59	2090	1
102813	12:55	1	r.mosquito	60	2884	3
102813	12:55	1	howtype	1	21093	6
103013	12:01	1	speed	1	4135	88
103013	12:01	1	error	2	1975	96
103013	12:01	1	whichhand	3	5316	right
103013	12:01	1	r.joyful	1	5511	6
103013	12:01	1	r.lamb	2	3352	1
103013	12:01	1	r.milk	3	1992	3
103013	12:01	1	r.bereavement	4	4726	1
103013	12:01	1	r.rabbit	5	1711	1
103013	12:01	1	r.book	6	2105	3
103013	12:01	1	r.divorce	7	1594	1
103013	12:01	1	r.scissors	8	2648	1
103013	12:01	1	r.movie	9	2364	4
103013	12:01	1	r.laughter	10	1464	9
103013	12:01	1	r.leprosy	11	1581	1
103013	12:01	1	r.useless	12	2915	5
103013	12:01	1	r.family	13	2947	8
103013	12:01	1	r.nectar	14	1979	2
103013	12:01	1	r.lively	15	1720	7
103013	12:01	1	r.plane	16	1923	3
103013	12:01	1	r.blackmail	17	1415	2
103013	12:01	1	r.letter	18	2109	5
103013	12:01	1	r.flirt	19	1388	8
103013	12:01	1	r.bankrupt	20	2731	1
103013	12:01	1	r.foam	21	4728	2
103013	13:28	1	speed	1	3051	42
103013	13:28	1	error	2	1714	97
103013	13:28	1	whichhand	3	9340	right
103013	13:28	1	r.grief	1	7016	3
103013	13:28	1	r.protected	2	4766	8
103013	13:28	1	r.thorn	3	3574	2
103013	13:28	1	r.trust	4	2326	9
103013	13:28	1	r.hostage	5	3759	1
103013	13:28	1	r.nude	6	2606	5
103013	13:28	1	r.ship	7	5908	5
103013	13:28	1	r.bed	8	3798	8
103013	13:28	1	r.overwhelmed	9	7460	3
103013	13:28	1	r.pain	10	2545	1
103013	13:28	1	r.disgusted	11	8033	1
103013	13:28	1	r.slave	12	1399	1
103013	13:28	1	r.dustpan	13	2981	5
103013	13:28	1	r.patient	14	2811	6
103013	13:28	1	r.option	15	3137	6
103013	13:28	1	r.whistle	16	7321	5
103013	13:28	1	r.soothe	17	3652	8
103013	13:28	1	r.seasick	18	1608	2
103013	13:28	1	r.trumpet	19	1870	5
103013	13:28	1	r.stiff	20	2432	5
103013	13:28	1	r.bandage	21	8853	4
103013	13:28	1	r.sleep	22	1875	9
103013	13:28	1	r.rifle	23	4046	5
103013	13:28	1	r.fantasy	24	1810	5
103013	13:28	1	r.alert	25	2039	6
103013	13:28	1	r.quiet	26	2747	8
103013	13:28	1	r.clouds	27	10571	6
103013	13:28	1	r.divorce	28	1885	1
103013	13:28	1	r.yacht	29	2063	5
103013	13:28	1	r.obnoxious	30	6082	4
103013	13:28	1	r.justice	31	1910	7
103013	13:28	1	r.victory	32	1495	9
103013	13:28	1	r.building	33	2616	9
103013	13:28	1	r.gold	34	4069	9
103013	13:28	1	r.outdoors	35	5945	8
103013	13:28	1	r.satisfied	36	2378	9
103013	13:28	1	r.god	37	3929	9
103013	13:28	1	r.fat	38	3321	1
103013	13:28	1	r.venom	39	3818	2
103013	13:28	1	r.limber	40	1944	8
103013	13:28	1	r.peace	41	1712	8
103013	13:28	1	r.messy	42	9785	4
103013	13:28	1	r.unfaithful	43	1562	1
103013	13:28	1	r.diamond	44	1889	9
103013	13:28	1	r.cut	45	1467	1
103013	13:28	1	r.anger	46	2510	1
103013	13:28	1	r.lion	47	4494	6
103013	13:28	1	r.cell	48	3057	2
103013	13:28	1	r.burdened	49	1613	1
103013	13:28	1	r.tree	50	9994	5
103013	13:28	1	r.resent	51	3730	2
103013	13:28	1	r.jealousy	52	7051	5
103013	13:28	1	r.rejected	53	11096	1
103013	13:28	1	r.intercourse	54	2381	9
103013	13:28	1	r.bowl	55	5851	5
103013	13:28	1	r.nun	56	7328	5
103013	13:28	1	r.respect	57	4762	8
103013	13:28	1	r.loved	58	1266	9
103013	13:28	1	r.beverage	59	1125	5
103013	13:28	1	r.dog	60	1605	5
103013	13:28	1	f.dwashe	1	8561	5
103013	13:28	1	f.thoob	2	4722	5
103013	13:28	1	f.steesh	3	2476	5
103013	13:28	1	f.goche	4	2055	5
103013	13:28	1	f.thwothe	5	5282	5
103013	13:28	1	f.voop	6	1558	5
103013	13:28	1	f.skobe	7	4973	4
103013	13:28	1	f.twole	8	3125	4
103013	13:28	1	f.drase	9	5430	3
103013	13:28	1	f.joshe	10	2908	5
103013	13:28	1	f.troof	11	2710	6
103013	13:28	1	f.plooch	12	1999	6
103013	13:28	1	f.twool	13	1964	5
103013	13:28	1	f.noosh	14	2155	5
103013	13:28	1	f.meeth	15	1627	5
103013	13:28	1	f.nooge	16	1311	5
103013	13:28	1	f.shooch	17	2704	6
103013	13:28	1	f.zooth	18	1586	5
103013	13:28	1	f.gwoose	19	2008	5
103013	13:28	1	f.kwooch	20	13885	5
103013	13:28	1	f.moshe	21	8099	5
103013	13:28	1	f.thwook	22	2040	5
103013	13:28	1	f.smoze	23	1572	6
103013	13:28	1	f.keeg	24	10362	5
103013	13:28	1	f.swase	25	1620	6
103013	13:28	1	f.throop	26	1273	6
103013	13:28	1	f.poom	27	1500	6
103013	13:28	1	f.thwaze	28	1789	5
103013	13:28	1	f.thwoove	29	1220	5
103013	13:28	1	f.froove	30	1712	6
103013	13:28	1	f.foop	31	2289	6
103013	13:28	1	f.steeb	32	4948	5
103013	13:28	1	f.jome	33	1028	5
103013	13:28	1	f.gwooch	34	1792	5
103013	13:28	1	f.frope	35	1030	5
103013	13:28	1	f.feep	36	882	5
103013	13:28	1	f.kwome	37	861	5
103013	13:28	1	f.swague	38	2135	5
103013	13:28	1	f.kwoove	39	1463	5
103013	13:28	1	f.smeen	40	1154	5
103013	13:28	1	f.snane	41	770	5
103013	13:28	1	f.trake	42	4680	5
103013	13:28	1	f.weeg	43	772	5
103013	13:28	1	f.kreeth	44	4610	5
103013	13:28	1	f.steeg	45	664	5
103013	13:28	1	f.dofe	46	714	5
103013	13:28	1	f.gathe	47	691	5
103013	13:28	1	f.dwoor	48	724	5
103013	13:28	1	f.yobe	49	693	5
103013	13:28	1	f.foog	50	1151	6
103013	13:28	1	f.drooze	51	1118	6
103013	13:28	1	f.thweem	52	1230	5
103013	13:28	1	f.kwose	53	1427	5
103013	13:28	1	f.slale	54	2471	5
103013	13:28	1	f.trage	55	1586	5
103013	13:28	1	f.smoove	56	1160	5
103013	13:28	1	f.drogue	57	991	5
103013	13:28	1	f.dweer	58	1373	5
103013	13:28	1	f.thwood	59	1644	6
103013	13:28	1	f.jeesh	60	1231	6
103013	13:28	1	howtype	1	12050	5
103013	13:55	1	speed	1	3874	72
103013	13:55	1	error	2	3299	100
103013	13:55	1	whichhand	3	4557	left
103013	13:55	1	f.noob	1	6056	5
103013	13:55	1	f.kwage	2	3909	3
103013	13:55	1	f.thweeve	3	4623	5
103013	13:55	1	f.teef	4	6660	4
103013	13:55	1	f.gwathe	5	3233	5
103013	13:55	1	f.noge	6	5158	5
103013	13:55	1	f.throog	7	3366	4
103013	13:55	1	f.gwoge	8	3782	3
103013	13:55	1	f.treeg	9	2981	6
103013	13:55	1	f.dwofe	10	1707	6
103013	13:55	1	f.shrame	11	2477	8
103013	13:55	1	f.peem	12	3327	5
103013	13:55	1	f.nague	13	1616	5
103013	13:55	1	f.bleege	14	3845	6
103013	13:55	1	f.jeeb	15	2609	6
103013	13:55	1	f.bloof	16	3686	8
103013	13:55	1	f.skase	17	1553	5
103013	13:55	1	f.twoove	18	3057	5
103013	13:55	1	f.dwook	19	2364	6
103013	13:55	1	f.zoke	20	1348	5
103013	13:55	1	f.dwoon	21	2259	7
103013	13:55	1	f.smave	22	1959	7
103013	13:55	1	f.zave	23	2326	6
103013	13:55	1	f.thoosh	24	1639	7
103013	13:55	1	f.swathe	25	2995	8
103013	13:55	1	f.blooth	26	2377	7
103013	13:55	1	f.thrathe	27	2231	7
103013	13:55	1	f.yoose	28	2052	5
103013	13:55	1	f.dwothe	29	1440	5
103013	13:55	1	f.loshe	30	4244	5
103013	13:55	1	f.kreege	31	2248	5
103013	13:55	1	f.thrake	32	1956	5
103013	13:55	1	f.moof	33	3835	4
103013	13:55	1	f.speem	34	2008	4
103013	13:55	1	f.smogue	35	1341	5
103013	13:55	1	f.snafe	36	2462	6
103013	13:55	1	f.sleer	37	2745	7
103013	13:55	1	f.moob	38	2273	6
103013	13:55	1	f.thwafe	39	1476	6
103013	13:55	1	f.thwave	40	1327	6
103013	13:55	1	f.thrare	41	2647	5
103013	13:55	1	f.shreep	42	4571	6
103013	13:55	1	f.plafe	43	1299	6
103013	13:55	1	f.preel	44	5452	6
103013	13:55	1	f.troof	45	2321	5
103013	13:55	1	f.chool	46	3010	4
103013	13:55	1	f.smope	47	2679	6
103013	13:55	1	f.zeef	48	6106	6
103013	13:55	1	f.yove	49	2100	4
103013	13:55	1	f.trague	50	3342	6
103013	13:55	1	f.dwogue	51	5798	6
103013	13:55	1	f.broshe	52	9397	5
103013	13:55	1	f.spove	53	4365	5
103013	13:55	1	f.blale	54	4613	5
103013	13:55	1	f.swome	55	2363	5
103013	13:55	1	f.skague	56	1194	5
103013	13:55	1	f.krore	57	1887	4
103013	13:55	1	f.frage	58	1218	5
103013	13:55	1	f.dwake	59	1110	5
103013	13:55	1	f.shooge	60	1647	4
103013	13:55	1	r.narcotic	1	4120	5
103013	13:55	1	r.thorn	2	3625	5
103013	13:55	1	r.rusty	3	3279	3
103013	13:55	1	r.discomfort	4	3314	2
103013	13:55	1	r.outrage	5	5483	4
103013	13:55	1	r.sickness	6	3030	3
103013	13:55	1	r.vehicle	7	2059	5
103013	13:55	1	r.leader	8	4254	8
103013	13:55	1	r.toy	9	2491	9
103013	13:55	1	r.seat	10	1077	5
103013	13:55	1	r.pamphlet	11	1936	6
103013	13:55	1	r.syphilis	12	2272	1
103013	13:55	1	r.custom	13	3539	5
103013	13:55	1	r.terrible	14	5499	5
103013	13:55	1	r.sapphire	15	1926	9
103013	13:55	1	r.vandal	16	3727	3
103013	13:55	1	r.blubber	17	1952	4
103013	13:55	1	r.jug	18	1303	4
103013	13:55	1	r.memories	19	2480	8
103013	13:55	1	r.allergy	20	2539	1
103013	13:55	1	r.morgue	21	3667	1
103013	13:55	1	r.malaria	22	1919	2
103013	13:55	1	r.sin	23	1720	3
103013	13:55	1	r.putrid	24	3393	1
103013	13:55	1	r.accident	25	2311	3
103013	13:55	1	r.field	26	1584	6
103013	13:55	1	r.destruction	27	2686	3
103013	13:55	1	r.powerful	28	1753	9
103013	13:55	1	r.green	29	2136	8
103013	13:55	1	r.beggar	30	3129	2
103013	13:55	1	r.caress	31	4257	9
103013	13:55	1	r.broken	32	5502	3
103013	13:55	1	r.alone	33	2144	5
103013	13:55	1	r.scared	34	2272	2
103013	13:55	1	r.danger	35	1555	2
103013	13:55	1	r.party	36	2107	9
103013	13:55	1	r.good	37	2060	9
103013	13:55	1	r.coin	38	1239	9
103013	13:55	1	r.flirt	39	1883	8
103013	13:55	1	r.intellect	40	1182	9
103013	13:55	1	r.sweetheart	41	1940	8
103013	13:55	1	r.garden	42	2220	9
103013	13:55	1	r.snow	43	3241	9
103013	13:55	1	r.delight	44	1094	9
103013	13:55	1	r.paint	45	1775	6
103013	13:55	1	r.legend	46	1918	9
103013	13:55	1	r.gloom	47	3319	5
103013	13:55	1	r.book	48	1449	9
103013	13:55	1	r.corpse	49	3212	1
103013	13:55	1	r.millionaire	50	1241	9
103013	13:55	1	r.success	51	1037	9
103013	13:55	1	r.offend	52	2697	3
103013	13:55	1	r.stench	53	1539	1
103013	13:55	1	r.girl	54	2219	5
103013	13:55	1	r.engaged	55	2432	6
103013	13:55	1	r.egg	56	1765	5
103013	13:55	1	r.punishment	57	2220	3
103013	13:55	1	r.tease	58	4561	5
103013	13:55	1	r.mad	59	1608	5
103013	13:55	1	r.violent	60	2950	3
103013	13:55	1	howtype	1	5901	6
103013	15:32	1	speed	1	2335	43
103013	15:32	1	error	2	1849	95
103013	15:32	1	whichhand	3	8701	left
103013	15:32	1	r.mad	1	5223	2
103013	15:32	1	r.derelict	2	4085	4
103013	15:32	1	r.waste	3	2264	3
103013	15:32	1	r.narcotic	4	3131	1
103013	15:32	1	r.magical	5	1796	8
103013	15:32	1	r.handicap	6	2578	5
103013	15:32	1	r.agility	7	2656	6
103013	15:32	1	r.indifferent	8	1812	5
103013	15:32	1	r.fraud	9	1641	3
103013	15:32	1	r.air	10	1397	7
103013	15:32	1	r.dentist	11	2946	4
103013	15:32	1	r.greed	12	2634	2
103013	15:32	1	r.stagnant	13	1751	2
103013	15:32	1	r.riot	14	1887	1
103013	15:32	1	r.month	15	2745	5
103013	15:36	1	speed	1	3806	43
103013	15:36	1	error	2	1605	95
103013	15:36	1	whichhand	3	4771	left
103013	15:36	1	r.father	1	2363	8
103013	15:36	1	r.vanity	2	1658	8
103013	15:36	1	r.cliff	3	2406	4
103013	15:36	1	r.untroubled	4	2755	7
103013	15:36	1	r.hurt	5	1500	3
103013	15:36	1	r.addicted	6	1669	1
103013	15:36	1	r.treat	7	2144	8
103013	15:36	1	r.swamp	8	2983	4
103013	15:36	1	r.fight	9	2054	3
103013	15:36	1	r.fantasy	10	1706	7
103013	15:36	1	r.elbow	11	1547	5
103013	15:36	1	r.confident	12	1531	8
103013	15:36	1	r.dead	13	1875	1
103013	15:36	1	r.refreshment	14	2926	7
103013	15:36	1	r.lighthouse	15	1751	8
103013	15:36	1	r.toxic	16	1670	2
103013	15:36	1	r.war	17	1673	1
103013	15:36	1	r.lamb	18	1572	6
103013	15:36	1	r.concentrate	19	1843	6
103013	15:36	1	r.sinful	20	1734	5
103013	15:36	1	r.torture	21	2631	1
103013	15:36	1	r.rape	22	923	1
103013	15:36	1	r.foul	23	995	1
103013	15:36	1	r.snake	24	1017	2
103013	15:36	1	r.ulcer	25	958	2
103013	15:36	1	r.blossom	26	2349	8
103013	15:36	1	r.cuddle	27	1085	8
103013	15:36	1	r.hopeful	28	2519	7
103013	15:36	1	r.computer	29	2128	5
103013	15:36	1	r.free	30	1480	9
103013	15:36	1	r.idol	31	986	9
103013	15:36	1	r.angel	32	640	9
103013	15:36	1	r.accident	33	1388	3
103013	15:36	1	r.girl	34	2906	8
103013	15:36	1	r.queen	35	4028	7
103013	15:36	1	r.secure	36	1553	6
103013	15:36	1	r.sickness	37	1345	4
103013	15:36	1	r.mad	38	2232	3
103013	15:36	1	r.hope	39	1405	6
103013	15:36	1	r.hat	40	2690	5
103013	15:36	1	r.nervous	41	1693	4
103013	15:36	1	r.building	42	3351	5
103013	15:36	1	r.health	43	1527	6
103013	15:36	1	r.obscene	44	1759	4
103013	15:36	1	r.venom	45	3422	1
103013	15:36	1	r.comedy	46	1660	7
103013	15:36	1	r.method	47	1631	4
103013	15:36	1	r.scared	48	2163	3
103013	15:36	1	r.tragedy	49	1578	1
103013	15:36	1	r.learn	50	2280	6
103013	15:36	1	r.icebox	51	1699	5
103013	15:36	1	r.advantage	52	2036	6
103013	15:36	1	r.interest	53	1408	7
103013	15:36	1	r.athletics	54	2014	8
103013	15:36	1	r.hit	55	1618	2
103013	15:36	1	r.adorable	56	1632	9
103013	15:36	1	r.knife	57	1467	2
103013	15:36	1	r.lost	58	2527	3
103013	15:36	1	r.discomfort	59	1535	3
103013	15:36	1	r.fascinate	60	2079	8
103013	15:36	1	f.mothe	1	7608	5
103013	15:36	1	f.troof	2	3447	6
103013	15:36	1	f.thafe	3	2731	4
103013	15:36	1	f.grage	4	3932	5
103013	15:36	1	f.twape	5	2501	6
103013	15:36	1	f.gwogue	6	2414	4
103013	15:36	1	f.gleesh	7	1532	3
103013	15:36	1	f.dweel	8	2108	6
103013	15:36	1	f.zoog	9	2005	7
103013	15:36	1	f.gwool	10	1811	4
103013	15:36	1	f.treege	11	1272	6
103013	15:36	1	f.throke	12	1731	3
103013	15:36	1	f.zashe	13	1931	4
103013	15:36	1	f.gwoosh	14	1307	6
103013	15:36	1	f.shrothe	15	2261	4
103013	15:36	1	f.soog	16	1384	3
103013	15:36	1	f.slade	17	1598	2
103013	15:36	1	f.gwathe	18	2331	7
103013	15:36	1	f.drooze	19	3388	4
103013	15:36	1	f.yove	20	1763	6
103013	15:36	1	f.swothe	21	1650	6
103013	15:36	1	f.skothe	22	1836	7
103013	15:36	1	f.speet	23	2561	4
103013	15:36	1	f.gwoove	24	1528	6
103013	15:36	1	f.sposhe	25	1753	7
103013	15:36	1	f.smope	26	2256	4
103013	15:36	1	f.dwoche	27	2012	6
103013	15:36	1	f.thwoche	28	1329	7
103013	15:36	1	f.shooge	29	1265	6
103013	15:36	1	f.voosh	30	2052	8
103013	15:36	1	f.flashe	31	1647	7
103013	15:36	1	f.thwope	32	1427	6
103013	15:36	1	f.ploche	33	1591	7
103013	15:36	1	f.thoche	34	1581	3
103013	15:36	1	f.klooch	35	1467	4
103013	15:36	1	f.sneeg	36	2190	2
103013	15:36	1	f.spope	37	2005	3
103013	15:36	1	f.spome	38	1442	4
103013	15:36	1	f.zeef	39	1551	3
103013	15:36	1	f.blobe	40	1302	6
103013	15:36	1	f.swooge	41	1304	7
103013	15:36	1	f.sleeg	42	1137	6
103013	15:36	1	f.theeg	43	2665	5
103013	15:36	1	f.klache	44	1228	6
103013	15:36	1	f.thooch	45	1440	4
103013	15:36	1	f.froop	46	1724	7
103013	15:36	1	f.glooge	47	1277	6
103013	15:36	1	f.nothe	48	1007	5
103013	15:36	1	f.smafe	49	1837	3
103013	15:36	1	f.jeesh	50	1369	6
103013	15:36	1	f.dwove	51	1751	4
103013	15:36	1	f.gwache	52	1247	6
103013	15:36	1	f.skase	53	1642	3
103013	15:36	1	f.yoche	54	1623	2
103013	15:36	1	f.kleep	55	1324	7
103013	15:36	1	f.jeech	56	900	6
103013	15:36	1	f.twoge	57	1118	4
103013	15:36	1	f.noche	58	1726	6
103013	15:36	1	f.throor	59	1231	4
103013	15:36	1	f.chage	60	1547	3
103013	15:36	1	howtype	1	8313	4
103113	13:57	1	speed	1	2790	62
103113	13:57	1	error	2	1834	93
103113	13:57	1	whichhand	3	5239	right
103113	13:57	1	f.brare	1	3477	5
103113	13:57	1	f.thache	2	5839	4
103113	13:57	1	f.kague	3	2013	3
103113	13:57	1	f.speet	4	2730	4
103113	13:57	1	f.thwafe	5	3786	6
103113	13:57	1	f.koob	6	1993	7
103113	13:57	1	f.throol	7	2831	4
103113	13:57	1	f.preet	8	1876	3
103113	13:57	1	f.sloob	9	2182	3
103113	13:57	1	f.breer	10	2477	4
103113	13:57	1	f.neeth	11	1351	5
103113	13:57	1	f.smaze	12	2711	6
103113	13:57	1	f.throshe	13	3184	5
103113	13:57	1	f.snome	14	4286	3
103113	13:57	1	f.theel	15	3602	7
103113	13:57	1	f.twobe	16	3848	3
103113	13:57	1	f.smoon	17	2292	6
103113	13:57	1	f.dweek	18	3495	4
103113	13:57	1	f.thwathe	19	2809	4
103113	13:57	1	f.doob	20	1807	6
103113	13:57	1	f.smothe	21	3844	7
103113	13:57	1	f.dwoot	22	3720	6
103113	13:57	1	f.tage	23	3378	3
103113	13:57	1	f.zabe	24	3753	7
103113	13:57	1	f.greesh	25	2097	7
103113	13:57	1	f.theech	26	1723	3
103113	13:57	1	f.shrofe	27	3011	3
103113	13:57	1	f.gweese	28	3057	7
103113	13:57	1	f.veeve	29	3365	8
103113	13:57	1	f.ploge	30	5307	6
103113	13:57	1	f.frathe	31	3070	3
103113	13:57	1	f.veek	32	2082	4
103113	13:57	1	f.throop	33	3355	6
103113	13:57	1	f.neef	34	1860	5
103113	13:57	1	f.shrage	35	2479	3
103113	13:57	1	f.yeep	36	2081	4
103113	13:57	1	f.dwote	37	4060	5
103113	13:57	1	f.troke	38	3015	3
103113	13:57	1	f.glook	39	2653	3
103113	13:57	1	f.bleef	40	1968	7
103113	13:57	1	f.krooch	41	2224	4
103113	13:57	1	f.ploosh	42	4884	3
103113	13:57	1	f.jeet	43	1926	4
103113	13:57	1	f.spoosh	44	2528	6
103113	13:57	1	f.bloog	45	3385	5
103113	13:57	1	f.sleel	46	2175	6
103113	13:57	1	f.shrone	47	2622	4
103113	13:57	1	f.thwooze	48	4723	3
103113	13:57	1	f.ploche	49	2893	4
103113	13:57	1	f.yoog	50	2591	5
103113	13:57	1	f.greer	51	4590	3
103113	13:57	1	f.fleep	52	2101	6
103113	13:57	1	f.kwase	53	3199	7
103113	13:57	1	f.slode	54	2613	4
103113	13:57	1	f.groosh	55	3594	6
103113	13:57	1	f.thote	56	4952	4
103113	13:57	1	f.mofe	57	2480	4
103113	13:57	1	f.kwade	58	4379	5
103113	13:57	1	f.pleer	59	1866	3
103113	13:57	1	f.twathe	60	4605	4
103113	13:57	1	r.excitement	1	3858	8
103113	13:57	1	r.lion	2	2174	6
103113	13:57	1	r.quarrel	3	1661	2
103113	13:57	1	r.daylight	4	1736	8
103113	13:57	1	r.wounds	5	1641	1
103113	13:57	1	r.penis	6	1757	2
103113	13:57	1	r.frog	7	2092	6
103113	13:57	1	r.anxious	8	1502	3
103113	13:57	1	r.ocean	9	1688	8
103113	13:57	1	r.valentine	10	1650	8
103113	13:57	1	r.immoral	11	1990	2
103113	13:57	1	r.glass	12	2124	6
103113	13:57	1	r.greet	13	1669	7
103113	13:57	1	r.sick	14	2400	3
103113	13:57	1	r.blond	15	2478	5
103113	13:57	1	r.nasty	16	2408	2
103113	13:57	1	r.reserved	17	2358	6
103113	13:57	1	r.surgery	18	1878	4
103113	13:57	1	r.rabbit	19	1648	7
103113	13:57	1	r.needle	20	1940	4
103113	13:57	1	r.insolent	21	2276	3
103113	13:57	1	r.christmas	22	1830	8
103113	13:57	1	r.exercise	23	3115	3
103113	13:57	1	r.lottery	24	2788	4
103113	13:57	1	r.mountain	25	1898	8
103113	13:57	1	r.manner	26	2148	7
103113	13:57	1	r.consoled	27	1492	6
103113	13:57	1	r.concentrate	28	1590	7
103113	13:57	1	r.scalding	29	2052	3
103113	13:57	1	r.wink	30	2712	3
103113	13:57	1	r.damage	31	2121	3
103113	13:57	1	r.clothing	32	3498	5
103113	13:57	1	r.insane	33	2188	1
103113	13:57	1	r.movie	34	1666	7
103113	13:57	1	r.door	35	1717	5
103113	13:57	1	r.whistle	36	2150	4
103113	13:57	1	r.suspicious	37	1982	3
103113	13:57	1	r.kerchief	38	1884	6
103113	13:57	1	r.fascinate	39	1575	7
103113	13:57	1	r.mutilate	40	1653	2
103113	13:57	1	r.enraged	41	1761	2
103113	13:57	1	r.sickness	42	2376	2
103113	13:57	1	r.knowledge	43	2070	8
103113	13:57	1	r.car	44	1617	6
103113	13:57	1	r.offend	45	3654	3
103113	13:57	1	r.honey	46	1730	7
103113	13:57	1	r.measles	47	2882	2
103113	13:57	1	r.pity	48	1829	4
103113	13:57	1	r.computer	49	3465	5
103113	13:57	1	r.save	50	2061	8
103113	13:57	1	r.excellence	51	1424	8
103113	13:57	1	r.lonely	52	2173	3
103113	13:57	1	r.crime	53	1276	2
103113	13:57	1	r.detail	54	3334	7
103113	13:57	1	r.passion	55	1543	7
103113	13:57	1	r.thief	56	1383	3
103113	13:57	1	r.relaxed	57	2061	7
103113	13:57	1	r.bandage	58	2272	4
103113	13:57	1	r.sweetheart	59	1507	6
103113	13:57	1	r.tank	60	2916	5
103113	13:57	1	howtype	1	12980	7
103113	14:20	1	speed	1	3355	49
103113	14:20	1	error	2	2208	95
103113	14:20	1	whichhand	3	7959	Right
103113	14:20	1	r.burial	1	13806	5
103113	14:20	1	r.snake	2	5055	5
103113	14:20	1	r.sex	3	5836	7
103113	14:20	1	r.square	4	3025	5
103113	14:20	1	r.truck	5	2830	5
103113	14:20	1	r.rainbow	6	4922	8
103113	14:20	1	r.melody	7	2620	9
103113	14:20	1	r.festive	8	3330	9
103113	14:20	1	r.pleasure	9	2050	9
103113	14:20	1	r.murderer	10	4566	4
103113	14:20	1	r.assault	11	2310	3
103113	14:20	1	r.person	12	2183	5
103113	14:20	1	r.daylight	13	2805	8
103113	14:20	1	r.morbid	14	2899	2
103113	14:20	1	r.umbrella	15	2237	5
103113	14:20	1	r.cork	16	2026	5
103113	14:20	1	r.face	17	1958	5
103113	14:20	1	r.needle	18	2910	2
103113	14:20	1	r.elated	19	1823	9
103113	14:20	1	r.dark	20	2204	5
103113	14:20	1	r.dollar	21	3042	5
103113	14:20	1	r.urine	22	4103	3
103113	14:20	1	r.gold	23	3513	8
103113	14:20	1	r.errand	24	1826	5
103113	14:20	1	r.cow	25	1695	5
103113	14:20	1	r.radiator	26	1984	5
103113	14:20	1	r.agility	27	1943	5
103113	14:20	1	r.earth	28	1478	5
103113	14:20	1	r.heroin	29	2080	5
103113	14:20	1	r.riot	30	6995	4
103113	14:20	1	r.hug	31	1802	6
103113	14:20	1	r.scandal	32	2879	6
103113	14:20	1	r.dreary	33	2258	3
103113	14:20	1	r.table	34	1478	5
103113	14:20	1	r.glamour	35	2320	8
103113	14:20	1	r.sunrise	36	1649	9
103113	14:20	1	r.mangle	37	1477	5
103113	14:20	1	r.rabbit	38	1359	5
103113	14:20	1	r.legend	39	1886	8
103113	14:20	1	r.embarrassed	40	1568	4
103113	14:20	1	r.fungus	41	1687	3
103113	14:20	1	r.insult	42	1665	3
103113	14:20	1	r.win	43	2084	7
103113	14:20	1	r.child	44	5087	1
103113	14:20	1	r.patriot	45	2018	6
103113	14:20	1	r.intercourse	46	3159	7
103113	14:20	1	r.writer	47	1790	5
103113	14:20	1	r.rancid	48	1676	5
103113	14:20	1	r.thankful	49	1655	5
103113	14:20	1	r.cozy	50	1810	7
103113	14:20	1	r.name	51	1319	5
103113	14:20	1	r.pig	52	1296	5
103113	14:20	1	r.disgusted	53	1577	3
103113	14:20	1	r.good	54	1464	5
103113	14:20	1	r.unhappy	55	1601	4
103113	14:20	1	r.letter	56	1280	5
103113	14:20	1	r.nipple	57	3002	5
103113	14:20	1	r.adventure	58	1928	8
103113	14:20	1	r.twilight	59	2088	7
103113	14:20	1	r.satisfied	60	2179	6
103113	14:20	1	f.spague	1	3667	5
103113	14:20	1	f.yofe	2	4110	5
103113	14:20	1	f.frafe	3	12632	5
103113	14:20	1	f.dwafe	4	9056	6
103113	14:20	1	f.vafe	5	2414	7
103113	14:20	1	f.chathe	6	1891	4
103113	14:20	1	f.toof	7	2989	8
103113	14:20	1	f.snoove	8	2460	6
103113	14:20	1	f.brooge	9	1607	5
103113	14:20	1	f.sloge	10	2660	4
103113	14:20	1	f.poosh	11	1551	6
103113	14:20	1	f.sloche	12	1471	5
103113	14:20	1	f.trooge	13	1746	5
103113	14:20	1	f.thweech	14	2113	8
103113	14:20	1	f.tweech	15	1842	6
103113	14:20	1	f.shrague	16	1855	5
103113	14:20	1	f.drabe	17	1634	5
103113	14:20	1	f.dwake	18	2246	6
103113	14:20	1	f.smashe	19	1642	7
103113	14:20	1	f.yoove	20	1654	3
103113	14:20	1	f.zake	21	1794	5
103113	14:20	1	f.swool	22	1679	5
103113	14:20	1	f.foche	23	1938	5
103113	14:20	1	f.ploge	24	1994	4
103113	14:20	1	f.drogue	25	1312	6
103113	14:20	1	f.throme	26	1528	5
103113	14:20	1	f.keeb	27	4729	4
103113	14:20	1	f.kleesh	28	2714	3
103113	14:20	1	f.thrague	29	1811	6
103113	14:20	1	f.stose	30	2328	3
103113	14:20	1	f.preet	31	1584	5
103113	14:20	1	f.blobe	32	1886	5
103113	14:20	1	f.gweesh	33	857	5
103113	14:20	1	f.blooge	34	1124	5
103113	14:20	1	f.shreege	35	1157	5
103113	14:20	1	f.klache	36	764	5
103113	14:20	1	f.snooge	37	1107	5
103113	14:20	1	f.thwobe	38	2380	6
103113	14:20	1	f.gache	39	2434	3
103113	14:20	1	f.dwofe	40	5055	5
103113	14:20	1	f.theeg	41	1820	3
103113	14:20	1	f.gwook	42	2128	8
103113	14:20	1	f.thwome	43	1567	5
103113	14:20	1	f.smeen	44	1735	4
103113	14:20	1	f.gwooth	45	2296	8
103113	14:20	1	f.fofe	46	1809	6
103113	14:20	1	f.thwoot	47	2142	5
103113	14:20	1	f.sneen	48	1606	4
103113	14:20	1	f.gwoove	49	1972	8
103113	14:20	1	f.greeb	50	1347	5
103113	14:20	1	f.trobe	51	1458	4
103113	14:20	1	f.spoove	52	1286	5
103113	14:20	1	f.swove	53	1176	5
103113	14:20	1	f.kwood	54	1182	5
103113	14:20	1	f.gwope	55	1499	5
103113	14:20	1	f.tage	56	965	5
103113	14:20	1	f.snague	57	795	5
103113	14:20	1	f.swoze	58	640	5
103113	14:20	1	f.ploshe	59	540	5
103113	14:20	1	f.thache	60	564	5
103113	14:20	1	howtype	1	9441	7
