date	time	subject	trialcode	trialnum	latency	response
090213	14:39	1	speed	1	7294	dfgfgvfh
090213	14:39	1	error	2	658	kdskdfsl
090213	14:39	1	whichhand	3	830	jdsfjdksl
090213	14:39	1	r.maggot	1	988	4
090213	14:39	1	r.stomach	2	347	1
090213	14:39	1	r.pamphlet	3	282	6
090213	14:39	1	r.clouds	4	1299	0
090213	14:39	1	f.plool	1	1101	3
090213	14:39	1	f.throge	2	382	6
090213	14:39	1	f.thwoor	3	412	3
090213	14:39	1	f.slogue	4	464	0
090213	14:39	1	howtype	1	1081	3
090313	12:55	1	speed	1	5917	51
090313	12:55	1	error	2	4073	98
090313	12:55	1	whichhand	3	6831	Left
090313	12:55	1	f.dwode	1	11767	7
090313	12:55	1	f.nooth	2	3194	3
090313	12:55	1	f.foob	3	2024	8
090313	12:55	1	f.vafe	4	2301	3
090313	12:55	1	f.sloose	5	3191	6
090313	12:55	1	f.voge	6	6102	6
090313	12:55	1	f.geech	7	2313	3
090313	12:55	1	f.trake	8	2226	4
090313	12:55	1	f.shroom	9	3702	9
090313	12:55	1	f.shrothe	10	11585	6
090313	12:55	1	f.dwoot	11	3058	8
090313	12:55	1	f.broge	12	3118	3
090313	12:55	1	f.swoof	13	2888	7
090313	12:55	1	f.dweer	14	2802	3
090313	12:55	1	f.pleel	15	2144	2
090313	12:55	1	f.gwood	16	3112	8
090313	12:55	1	f.throof	17	6065	7
090313	12:55	1	f.zache	18	1774	1
090313	12:55	1	f.preeth	19	1781	1
090313	12:55	1	f.glose	20	1179	2
090313	12:55	1	f.swoche	21	6409	4
090313	12:55	1	f.kweech	22	1512	2
090313	12:55	1	f.theen	23	1289	7
090313	12:55	1	f.gweeg	24	2859	4
090313	12:55	1	f.pague	25	1319	5
090313	12:55	1	f.groosh	26	4871	3
090313	12:55	1	f.slore	27	4395	5
090313	12:55	1	f.snoom	28	4690	4
090313	12:55	1	f.zogue	29	3069	2
090313	12:55	1	f.gwoom	30	1497	4
090313	12:55	1	f.bloge	31	2314	5
090313	12:55	1	f.kobe	32	2971	7
090313	12:55	1	f.kwope	33	1691	7
090313	12:55	1	f.fogue	34	1389	6
090313	12:55	1	f.stafe	35	2652	6
090313	12:55	1	f.groge	36	1647	4
090313	12:55	1	f.sabe	37	1627	6
090313	12:55	1	f.ploge	38	2631	6
090313	12:55	1	f.cheeth	39	4396	5
090313	12:55	1	f.dwoosh	40	1642	6
090313	12:55	1	f.slare	41	766	6
090313	12:55	1	f.dwoove	42	1389	6
090313	12:55	1	f.zeep	43	2275	4
090313	12:55	1	f.dwoge	44	1782	5
090313	12:55	1	f.flague	45	3788	4
090313	12:55	1	f.kwoche	46	4539	4
090313	12:55	1	f.threeth	47	4603	3
090313	12:55	1	f.spave	48	2179	5
090313	12:55	1	f.twoog	49	4130	2
090313	12:55	1	f.drade	50	2547	5
090313	12:55	1	f.dreeb	51	1283	4
090313	12:55	1	f.sloog	52	9389	6
090313	12:55	1	f.vage	53	1950	5
090313	12:55	1	f.jabe	54	1182	6
090313	12:55	1	f.dwofe	55	2612	2
090313	12:55	1	f.bloob	56	2281	6
090313	12:55	1	f.blabe	57	4380	4
090313	12:55	1	f.treege	58	2451	2
090313	12:55	1	f.deech	59	2159	3
090313	12:55	1	f.zothe	60	3247	5
090313	12:55	1	r.confused	1	13521	6
090313	12:55	1	r.rain	2	3312	9
090313	12:55	1	r.nice	3	2689	8
090313	12:55	1	r.prison	4	3684	5
090313	12:55	1	r.haphazard	5	3103	3
090313	12:55	1	r.dancer	6	6553	5
090313	12:55	1	r.crime	7	3178	6
090313	12:55	1	r.decorate	8	4145	4
090313	12:55	1	r.lawsuit	9	4777	8
090313	12:55	1	r.safe	10	5673	6
090313	12:55	1	r.bathroom	11	4389	7
090313	12:55	1	r.sexy	12	2324	9
090313	12:55	1	r.learn	13	3829	7
090313	12:55	1	r.hat	14	4106	6
090313	12:55	1	r.thrill	15	17428	7
090313	12:55	1	r.city	16	13790	5
090313	12:55	1	r.mucus	17	3000	2
090313	12:55	1	r.elevator	18	1791	7
090313	12:55	1	r.thermometer	19	2397	4
090313	12:55	1	r.victim	20	2323	5
090313	12:55	1	r.curtains	21	2340	6
090313	12:55	1	r.ugly	22	2668	5
090313	12:55	1	r.rage	23	2592	7
090313	12:55	1	r.mutilate	24	8286	5
090313	12:55	1	r.privacy	25	1907	9
090313	12:55	1	r.pillow	26	1413	9
090313	12:55	1	r.blossom	27	1681	8
090313	12:55	1	r.cuisine	28	1908	8
090313	12:55	1	r.yellow	29	1574	5
090313	12:55	1	r.legend	30	2356	7
090313	12:55	1	r.sphere	31	1492	8
090313	12:55	1	r.rattle	32	1823	5
090313	12:55	1	r.bomb	33	1436	5
090313	12:55	1	r.exercise	34	2136	8
090313	12:55	1	r.clock	35	3000	8
090313	12:55	1	r.malice	36	1735	5
090313	12:55	1	r.angel	37	1311	9
090313	12:55	1	r.scornful	38	1447	5
090313	12:55	1	r.grass	39	1171	5
090313	12:55	1	r.addicted	40	2658	7
090313	12:55	1	r.grief	41	1534	5
090313	12:55	1	r.enjoyment	42	2022	7
090313	12:55	1	r.crucify	43	3466	5
090313	12:55	1	r.morbid	44	2127	3
090313	12:55	1	r.jail	45	1487	3
090313	12:55	1	r.gender	46	1137	5
090313	12:55	1	r.ace	47	7689	7
090313	12:55	1	r.adorable	48	19429	5
090313	12:55	1	r.injury	49	2512	6
090313	12:55	1	r.column	50	2834	6
090313	12:55	1	r.flag	51	2781	3
090313	12:55	1	r.saint	52	2381	7
090313	12:55	1	r.penis	53	1699	9
090313	12:55	1	r.hospital	54	3829	7
090313	12:55	1	r.noose	55	2722	8
090313	12:55	1	r.cork	56	3027	6
090313	12:55	1	r.food	57	1928	9
090313	12:55	1	r.jealousy	58	4256	5
090313	12:55	1	r.god	59	1237	9
090313	12:55	1	r.overcast	60	1489	5
090313	12:55	1	howtype	1	21697	6
090513	13:57	1	speed	1	3494	60
090513	13:57	1	error	2	2789	100
090513	13:57	1	whichhand	3	5652	right
090513	13:57	1	r.kettle	1	4734	1
090513	13:57	1	r.lonely	2	2512	1
090513	13:57	1	r.surprised	3	3745	8
090513	13:57	1	r.freedom	4	2857	9
090513	13:57	1	r.indifferent	5	2797	4
090513	13:57	1	r.highway	6	3339	6
090513	13:57	1	r.fear	7	2316	2
090513	13:57	1	r.quiet	8	2125	5
090513	13:57	1	r.morbid	9	2206	1
090513	13:57	1	r.tool	10	1780	5
090513	13:57	1	r.destruction	11	1427	2
090513	13:57	1	r.horror	12	5007	6
090513	13:57	1	r.loneliness	13	1414	2
090513	13:57	1	r.sapphire	14	2330	9
090513	13:57	1	r.pet	15	1947	9
090513	13:57	1	r.blond	16	2299	4
090513	13:57	1	r.success	17	2148	9
090513	13:57	1	r.computer	18	1764	9
090513	13:57	1	r.employment	19	1555	9
090513	13:57	1	r.kitten	20	2067	8
090513	13:57	1	r.pig	21	2678	9
090513	13:57	1	r.swimmer	22	2825	5
090513	13:57	1	r.thoughtful	23	2174	7
090513	13:57	1	r.identity	24	1509	3
090513	13:57	1	r.stench	25	1614	1
090513	13:57	1	r.upset	26	1259	1
090513	13:57	1	r.spray	27	2182	8
090513	13:57	1	r.heart	28	1525	9
090513	13:57	1	r.relaxed	29	1462	9
090513	13:57	1	r.reserved	30	5321	7
090513	13:57	1	r.impair	31	2715	2
090513	13:57	1	r.savior	32	1468	9
090513	13:57	1	r.reward	33	1319	9
090513	13:57	1	r.rattle	34	2512	2
090513	13:57	1	r.greed	35	2369	4
090513	13:57	1	r.FALSE	36	2344	5
090513	13:57	1	r.joy	37	1576	8
090513	13:57	1	r.circle	38	1863	5
090513	13:57	1	r.embarrassed	39	1930	1
090513	13:57	1	r.tumor	40	1154	1
090513	13:57	1	r.vest	41	2377	3
090513	13:57	1	r.dummy	42	2848	4
090513	13:57	1	r.busybody	43	3876	8
090513	13:57	1	r.hit	44	1935	3
090513	13:57	1	r.alien	45	1511	1
090513	13:57	1	r.concentrate	46	1792	9
090513	13:57	1	r.hooker	47	1495	1
090513	13:57	1	r.disgusted	48	960	1
090513	13:57	1	r.yacht	49	1711	9
090513	13:57	1	r.gift	50	1296	9
090513	13:57	1	r.mutation	51	1481	1
090513	13:57	1	r.erotic	52	2628	8
090513	13:57	1	r.confused	53	2088	5
090513	13:57	1	r.detached	54	1899	2
090513	13:57	1	r.song	55	1500	9
090513	13:57	1	r.gripe	56	1334	1
090513	13:57	1	r.terrified	57	1694	1
090513	13:57	1	r.sun	58	1320	9
090513	13:57	1	r.man	59	1336	9
090513	13:57	1	r.mad	60	2617	2
090513	13:57	1	f.thrope	1	3770	5
090513	13:57	1	f.klope	2	3913	1
090513	13:57	1	f.gwake	3	2483	9
090513	13:57	1	f.toge	4	3342	5
090513	13:57	1	f.krage	5	1982	1
090513	13:57	1	f.slafe	6	2356	9
090513	13:57	1	f.sweeg	7	5332	2
090513	13:57	1	f.glafe	8	3014	9
090513	13:57	1	f.gweek	9	2355	8
090513	13:57	1	f.tofe	10	2339	5
090513	13:57	1	f.theek	11	1219	3
090513	13:57	1	f.trake	12	2049	1
090513	13:57	1	f.tage	13	2180	7
090513	13:57	1	f.prool	14	1099	2
090513	13:57	1	f.bleege	15	1732	1
090513	13:57	1	f.snooge	16	1684	9
090513	13:57	1	f.thoog	17	1535	2
090513	13:57	1	f.dweeze	18	1103	2
090513	13:57	1	f.klabe	19	5400	1
090513	13:57	1	f.thweed	20	1735	3
090513	13:57	1	f.flobe	21	1463	5
090513	13:57	1	f.droose	22	2371	3
090513	13:57	1	f.jabe	23	1681	7
090513	13:57	1	f.dweek	24	1436	4
090513	13:57	1	f.stothe	25	1728	7
090513	13:57	1	f.thane	26	1416	4
090513	13:57	1	f.gwogue	27	1677	9
090513	13:57	1	f.swogue	28	1296	2
090513	13:57	1	f.yeeb	29	1457	5
090513	13:57	1	f.sooch	30	1709	6
090513	13:57	1	f.klole	31	1678	2
090513	13:57	1	f.smoom	32	1721	7
090513	13:57	1	f.frothe	33	1473	9
090513	13:57	1	f.seech	34	1660	2
090513	13:57	1	f.stose	35	2879	8
090513	13:57	1	f.zeer	36	1594	4
090513	13:57	1	f.throom	37	1704	5
090513	13:57	1	f.prache	38	1577	8
090513	13:57	1	f.foche	39	1432	8
090513	13:57	1	f.krare	40	1844	8
090513	13:57	1	f.broor	41	1383	2
090513	13:57	1	f.jathe	42	1270	5
090513	13:57	1	f.krooth	43	1560	6
090513	13:57	1	f.feep	44	1759	8
090513	13:57	1	f.speesh	45	1262	3
090513	13:57	1	f.kweeze	46	1121	2
090513	13:57	1	f.spabe	47	1866	5
090513	13:57	1	f.slood	48	1381	2
090513	13:57	1	f.gwofe	49	1651	7
090513	13:57	1	f.klode	50	1311	3
090513	13:57	1	f.throde	51	1264	4
090513	13:57	1	f.smeen	52	1459	2
090513	13:57	1	f.shroog	53	1406	7
090513	13:57	1	f.dwoop	54	1107	4
090513	13:57	1	f.dofe	55	957	5
090513	13:57	1	f.thwood	56	1436	8
090513	13:57	1	f.kwase	57	857	2
090513	13:57	1	f.sneef	58	2348	6
090513	13:57	1	f.sweeth	59	1556	4
090513	13:57	1	f.gwooch	60	1587	5
090513	13:57	1	howtype	1	6208	7
090513	14:29	1	speed	1	3251	85
090513	14:29	1	error	2	2544	100
090513	14:29	1	whichhand	3	10112	right
090513	14:29	1	f.tave	1	19597	4
090513	14:29	1	f.trabe	2	6713	5
090513	14:29	1	f.dween	3	4916	3
090513	14:29	1	f.veek	4	4662	6
090513	14:29	1	f.troke	5	6506	5
090513	14:29	1	f.dwode	6	3045	2
090513	14:29	1	f.grache	7	6393	7
090513	14:29	1	f.shrooze	8	8065	6
090513	14:29	1	f.dweech	9	4758	4
090513	14:29	1	f.sloof	10	7358	6
090513	14:29	1	f.thook	11	6927	6
090513	14:29	1	f.sweege	12	3706	6
090513	14:29	1	f.twoshe	13	4684	3
090513	14:29	1	f.gweed	14	3439	1
090513	14:29	1	f.kwooze	15	3580	2
090513	14:29	1	f.zade	16	3747	8
090513	14:29	1	f.thwoke	17	3971	3
090513	14:29	1	f.kweege	18	6027	4
090513	14:29	1	f.nashe	19	3937	6
090513	14:29	1	f.shrogue	20	6138	6
090513	14:29	1	f.sweese	21	5300	4
090513	14:29	1	f.froop	22	2543	5
090513	14:29	1	f.swooth	23	6535	6
090513	14:29	1	f.throove	24	3041	7
090513	14:29	1	f.meeb	25	11237	4
090513	14:29	1	f.dweege	26	3853	3
090513	14:29	1	f.shroob	27	3441	4
090513	14:29	1	f.toshe	28	2334	8
090513	14:29	1	f.kweese	29	4391	3
090513	14:29	1	f.spame	30	4902	6
090513	14:29	1	f.theen	31	3105	5
090513	14:29	1	f.kweep	32	1675	2
090513	14:29	1	f.snooge	33	5534	7
090513	14:29	1	f.gleese	34	5959	7
090513	14:29	1	f.noge	35	3664	5
090513	14:29	1	f.poom	36	7451	7
090513	14:29	1	f.thooge	37	4265	5
090513	14:29	1	f.blabe	38	4213	6
090513	14:29	1	f.plape	39	2763	4
090513	14:29	1	f.gleege	40	2163	4
090513	14:29	1	f.doog	41	4305	3
090513	14:29	1	f.tweese	42	9196	6
090513	14:29	1	f.fleeg	43	5564	4
090513	14:29	1	f.yoose	44	2957	5
090513	14:29	1	f.skeeg	45	10748	4
090513	14:29	1	f.dwove	46	5439	6
090513	14:29	1	f.jooth	47	6821	4
090513	14:29	1	f.gwague	48	3844	1
090513	14:29	1	f.sname	49	4096	3
090513	14:29	1	f.snague	50	6338	5
090513	14:29	1	f.plole	51	2132	4
090513	14:29	1	f.theet	52	3173	5
090513	14:29	1	f.kreer	53	3404	5
090513	14:29	1	f.zeech	54	4155	6
090513	14:29	1	f.joom	55	2579	4
090513	14:29	1	f.snoon	56	3234	6
090513	14:29	1	f.treech	57	2686	7
090513	14:29	1	f.snafe	58	3721	5
090513	14:29	1	f.swabe	59	4787	6
090513	14:29	1	f.thweer	60	8866	4
090513	14:29	1	r.beverage	1	4409	8
090513	14:29	1	r.mighty	2	3159	5
090513	14:29	1	r.vampire	3	2447	6
090513	14:29	1	r.trust	4	4850	6
090513	14:29	1	r.grenade	5	5455	4
090513	14:29	1	r.car	6	3252	3
090513	14:29	1	r.freedom	7	7264	5
090513	14:29	1	r.paradise	8	5453	7
090513	14:29	1	r.cash	9	5450	5
090513	14:29	1	r.cuddle	10	9055	6
090513	14:29	1	r.disappoint	11	5749	5
090513	14:29	1	r.controlling	12	3302	3
090513	14:29	1	r.offend	13	4457	5
090513	14:29	1	r.thankful	14	7365	6
090513	14:29	1	r.lively	15	4158	4
090513	14:29	1	r.tower	16	2358	5
090513	14:29	1	r.derelict	17	3830	2
090513	14:29	1	r.hairdryer	18	3890	4
090513	14:29	1	r.man	19	2998	3
090513	14:29	1	r.alone	20	2900	6
090513	14:29	1	r.pervert	21	2230	3
090513	14:29	1	r.manner	22	1843	5
090513	14:29	1	r.divorce	23	4134	5
090513	14:29	1	r.fish	24	3759	6
090513	14:29	1	r.obscene	25	5959	6
090513	14:29	1	r.rat	26	4175	2
090513	14:29	1	r.blister	27	3646	5
090513	14:29	1	r.grin	28	2387	4
090513	14:29	1	r.salute	29	3033	5
090513	14:29	1	r.scorn	30	3286	3
090513	14:29	1	r.legend	31	2881	5
090513	14:29	1	r.louse	32	2580	2
090513	14:29	1	r.refreshment	33	3962	7
090513	14:29	1	r.young	34	2514	5
090513	14:29	1	r.habit	35	2555	5
090513	14:29	1	r.impair	36	5027	4
090513	14:29	1	r.banner	37	4769	6
090513	14:29	1	r.agony	38	3009	5
090513	14:29	1	r.mutilate	39	3758	8
090513	14:29	1	r.adorable	40	4422	8
090513	14:29	1	r.gift	41	1932	5
090513	14:29	1	r.ache	42	5613	4
090513	14:29	1	r.gold	43	2691	3
090513	14:29	1	r.angry	44	2710	5
090513	14:29	1	r.alert	45	3487	5
090513	14:29	1	r.cabinet	46	2410	7
090513	14:29	1	r.sin	47	7623	4
090513	14:29	1	r.chin	48	4902	6
090513	14:29	1	r.hostage	49	3929	4
090513	14:29	1	r.detached	50	8466	4
090513	14:29	1	r.stupid	51	2367	2
090513	14:29	1	r.trauma	52	4135	4
090513	14:29	1	r.person	53	3080	3
090513	14:29	1	r.egg	54	1675	1
090513	14:29	1	r.criminal	55	3429	7
090513	14:29	1	r.grass	56	2698	2
090513	14:29	1	r.snow	57	3772	9
090513	14:29	1	r.curious	58	2924	5
090513	14:29	1	r.annoy	59	6885	5
090513	14:29	1	r.loyal	60	7129	6
090513	14:29	1	howtype	1	8690	6
090913	11:06	1	speed	1	10466	62
090913	11:06	1	error	2	2836	87
090913	11:06	1	whichhand	3	14058	right
090913	11:06	1	f.gwove	1	16372	4
090913	11:06	1	f.snobe	2	4712	3
090913	11:06	1	f.skabe	3	5650	4
090913	11:06	1	f.sposhe	4	2775	6
090913	11:06	1	f.dobe	5	3293	6
090913	11:06	1	f.smooze	6	2929	8
090913	11:06	1	f.dweer	7	2665	5
090913	11:06	1	f.skeeth	8	2740	4
090913	11:06	1	f.troog	9	4693	7
090913	11:06	1	f.zake	10	2784	4
090913	11:06	1	f.thwoge	11	2503	2
090913	11:06	1	f.thwook	12	2191	2
090913	11:06	1	f.drose	13	2902	4
090913	11:06	1	f.thwake	14	3081	2
090913	11:06	1	f.snood	15	2555	6
090913	11:06	1	f.noog	16	2243	7
090913	11:06	1	f.spate	17	2943	7
090913	11:06	1	f.stooch	18	2831	5
090913	11:06	1	f.pleege	19	2603	4
090913	11:06	1	f.kroche	20	4369	2
090913	11:06	1	f.kloche	21	2368	2
090913	11:06	1	f.spashe	22	2768	7
090913	11:06	1	f.vope	23	3456	8
090913	11:06	1	f.bloob	24	3051	5
090913	11:06	1	f.geech	25	4633	4
090913	11:06	1	f.pague	26	6725	3
090913	11:06	1	f.frooth	27	3160	7
090913	11:06	1	f.flofe	28	3991	7
090913	11:06	1	f.prape	29	3157	5
090913	11:06	1	f.krafe	30	2319	3
090913	11:06	1	f.zeesh	31	2023	2
090913	11:06	1	f.zeep	32	3181	7
090913	11:06	1	f.gloog	33	5163	5
090913	11:06	1	f.kwooch	34	2204	3
090913	11:06	1	f.dreese	35	2553	5
090913	11:06	1	f.thane	36	2761	5
090913	11:06	1	f.floche	37	2441	4
090913	11:06	1	f.kwooge	38	3108	4
090913	11:06	1	f.gooth	39	3775	6
090913	11:06	1	f.spabe	40	3334	5
090913	11:06	1	f.spote	41	3190	4
090913	11:06	1	f.thwaze	42	2574	2
090913	11:06	1	f.gwoof	43	2324	2
090913	11:06	1	f.plofe	44	2989	6
090913	11:06	1	f.kloob	45	3236	3
090913	11:06	1	f.krathe	46	2289	2
090913	11:06	1	f.shrage	47	4572	5
090913	11:06	1	f.sweel	48	2515	6
090913	11:06	1	f.dwove	49	2581	5
090913	11:06	1	f.thwoop	50	2467	7
090913	11:06	1	f.drare	51	2439	5
090913	11:06	1	f.brare	52	2973	4
090913	11:06	1	f.thave	53	2674	5
090913	11:06	1	f.klabe	54	2251	3
090913	11:06	1	f.trache	55	4776	5
090913	11:06	1	f.smone	56	3544	5
090913	11:06	1	f.shroche	57	4201	4
090913	11:06	1	f.klool	58	2392	3
090913	11:06	1	f.sague	59	1862	2
090913	11:06	1	f.ploop	60	3336	6
090913	11:06	1	r.bowl	1	3193	5
090913	11:06	1	r.cheer	2	3656	5
090913	11:06	1	r.mother	3	3732	5
090913	11:06	1	r.toxic	4	2269	3
090913	11:06	1	r.storm	5	2385	6
090913	11:06	1	r.magical	6	3031	7
090913	11:06	1	r.muddy	7	3234	4
090913	11:06	1	r.rat	8	3040	2
090913	11:06	1	r.greet	9	3821	4
090913	11:06	1	r.crucify	10	3435	3
090913	11:06	1	r.messy	11	2728	7
090913	11:06	1	r.patient	12	2191	5
090913	11:06	1	r.suicide	13	4094	4
090913	11:06	1	r.tomb	14	5393	5
090913	11:06	1	r.snuggle	15	3184	7
090913	11:06	1	r.handsome	16	2222	5
090913	11:06	1	r.louse	17	2068	5
090913	11:06	1	r.knot	18	3438	4
090913	11:06	1	r.melody	19	2578	4
090913	11:06	1	r.alcoholic	20	2426	2
090913	11:06	1	r.lost	21	2975	4
090913	11:06	1	r.flood	22	5422	5
090913	11:06	1	r.weary	23	2475	6
090913	11:06	1	r.filth	24	2919	4
090913	11:06	1	r.flirt	25	2904	5
090913	11:06	1	r.king	26	3210	6
090913	11:06	1	r.death	27	2311	2
090913	11:06	1	r.invader	28	2985	2
090913	11:06	1	r.kiss	29	2344	7
090913	11:06	1	r.tornado	30	2007	5
090913	11:06	1	r.scar	31	2477	6
090913	11:06	1	r.cellar	32	2744	6
090913	11:06	1	r.kind	33	2631	5
090913	11:06	1	r.crisis	34	2788	5
090913	11:06	1	r.enjoyment	35	2618	5
090913	11:06	1	r.humiliate	36	3144	4
090913	11:06	1	r.drown	37	1912	3
090913	11:06	1	r.flag	38	1833	5
090913	11:06	1	r.blister	39	2109	4
090913	11:06	1	r.punishment	40	1830	4
090913	11:06	1	r.triumphant	41	2627	6
090913	11:06	1	r.orchestra	42	3575	4
090913	11:06	1	r.modest	43	1502	5
090913	11:06	1	r.heart	44	1520	5
090913	11:06	1	r.tree	45	1720	7
090913	11:06	1	r.allergy	46	1642	5
090913	11:06	1	r.evil	47	1838	4
090913	11:06	1	r.slap	48	1738	5
090913	11:06	1	r.lawn	49	1811	5
090913	11:06	1	r.letter	50	1488	5
090913	11:06	1	r.money	51	1873	5
090913	11:06	1	r.lamp	52	4356	5
090913	11:06	1	r.book	53	2966	5
090913	11:06	1	r.dead	54	2875	3
090913	11:06	1	r.song	55	1896	5
090913	11:06	1	r.sin	56	2536	4
090913	11:06	1	r.discomfort	57	2146	3
090913	11:06	1	r.liberty	58	1834	5
090913	11:06	1	r.engaged	59	2797	5
090913	11:06	1	r.game	60	2044	5
090913	11:06	1	howtype	1	9078	6
091013	14:55	1	speed	1	3188	51
091013	14:55	1	error	2	2534	96
091013	14:55	1	whichhand	3	6831	right
091013	14:55	1	f.poshe	1	6445	4
091013	14:55	1	f.theeb	2	3203	5
091013	14:55	1	f.frogue	3	4890	4
091013	14:55	1	f.kreege	4	7733	3
091013	14:55	1	f.zook	5	2240	6
091013	14:55	1	f.shreeth	6	3420	5
091013	14:55	1	f.thool	7	3618	6
091013	14:55	1	f.skeege	8	2287	4
091013	14:55	1	f.spoot	9	2306	6
091013	14:55	1	f.snoshe	10	2667	7
091013	14:55	1	f.yeen	11	2807	5
091013	14:55	1	f.bloshe	12	3525	6
091013	14:55	1	f.kwoche	13	5062	5
091013	14:55	1	f.kwoob	14	1850	7
091013	14:55	1	f.throche	15	4766	7
091013	14:55	1	f.plove	16	3822	4
091013	14:55	1	f.mofe	17	4908	4
091013	14:55	1	f.goche	18	6365	5
091013	14:55	1	f.weeth	19	3999	3
091013	14:55	1	f.cheel	20	5317	4
091013	14:55	1	f.kleel	21	3871	3
091013	14:55	1	f.twool	22	2555	6
091013	14:55	1	f.kwague	23	2123	7
091013	14:55	1	f.wague	24	3268	6
091013	14:55	1	f.shraze	25	4048	6
091013	14:55	1	f.toshe	26	5660	7
091013	14:55	1	f.thogue	27	2808	5
091013	14:55	1	f.sweeze	28	2743	6
091013	14:55	1	f.throove	29	4182	5
091013	14:55	1	f.shoog	30	2397	7
091013	14:55	1	f.yeeze	31	2124	5
091013	14:55	1	f.meeth	32	2237	5
091013	14:55	1	f.kweese	33	2057	6
091013	14:55	1	f.bashe	34	2829	3
091013	14:55	1	f.joosh	35	2553	6
091013	14:55	1	f.thwake	36	2257	7
091013	14:55	1	f.treeb	37	2669	5
091013	14:55	1	f.drooge	38	1881	4
091013	14:55	1	f.glooge	39	3275	4
091013	14:55	1	f.blabe	40	2454	6
091013	14:55	1	f.treege	41	3666	5
091013	14:55	1	f.prape	42	3326	4
091013	14:55	1	f.sneesh	43	4447	5
091013	14:55	1	f.smane	44	4100	4
091013	14:55	1	f.twooch	45	4790	5
091013	14:55	1	f.twoor	46	2093	7
091013	14:55	1	f.smoon	47	2959	6
091013	14:55	1	f.troche	48	4878	5
091013	14:55	1	f.thashe	49	3273	3
091013	14:55	1	f.swage	50	3021	6
091013	14:55	1	f.dothe	51	2475	8
091013	14:55	1	f.voosh	52	3878	6
091013	14:55	1	f.frashe	53	2929	4
091013	14:55	1	f.zoog	54	2810	4
091013	14:55	1	f.brathe	55	6399	4
091013	14:55	1	f.bloob	56	2030	7
091013	14:55	1	f.slole	57	2994	6
091013	14:55	1	f.proche	58	3209	4
091013	14:55	1	f.dwase	59	3215	4
091013	14:55	1	f.veege	60	3612	5
091013	14:55	1	r.crutch	1	5777	4
091013	14:55	1	r.theory	2	2729	7
091013	14:55	1	r.luscious	3	2674	7
091013	14:55	1	r.exercise	4	2357	4
091013	14:55	1	r.cemetery	5	2860	3
091013	14:55	1	r.cheer	6	1976	6
091013	14:55	1	r.wonder	7	1407	8
091013	14:55	1	r.window	8	2180	6
091013	14:55	1	r.sissy	9	3178	4
091013	14:55	1	r.pistol	10	2089	5
091013	14:55	1	r.bathtub	11	2348	6
091013	14:55	1	r.frog	12	2316	5
091013	14:55	1	r.severe	13	2485	2
091013	14:55	1	r.annoy	14	1855	2
091013	14:55	1	r.storm	15	2027	9
091013	14:55	1	r.ambulance	16	3071	4
091013	14:55	1	r.thrill	17	2163	7
091013	14:55	1	r.mountain	18	1794	7
091013	14:55	1	r.victory	19	2304	8
091013	14:55	1	r.cook	20	1314	6
091013	14:55	1	r.mischief	21	1179	6
091013	14:55	1	r.cozy	22	2281	7
091013	14:55	1	r.dog	23	2323	9
091013	14:55	1	r.hinder	24	2004	3
091013	14:55	1	r.caress	25	2178	5
091013	14:55	1	r.crash	26	1936	4
091013	14:55	1	r.treat	27	1785	7
091013	14:55	1	r.party	28	2215	5
091013	14:55	1	r.wasp	29	1764	1
091013	14:55	1	r.fault	30	2227	3
091013	14:55	1	r.unit	31	2016	5
091013	14:55	1	r.honey	32	1957	3
091013	14:55	1	r.headache	33	2077	3
091013	14:55	1	r.excitement	34	1799	6
091013	14:55	1	r.humane	35	1629	5
091013	14:55	1	r.people	36	1161	5
091013	14:55	1	r.arm	37	3016	5
091013	14:55	1	r.stupid	38	1885	3
091013	14:55	1	r.space	39	2584	7
091013	14:55	1	r.hurricane	40	4246	5
091013	14:55	1	r.reverent	41	3331	5
091013	14:55	1	r.fungus	42	2139	6
091013	14:55	1	r.blond	43	2140	3
091013	14:55	1	r.bouquet	44	3332	4
091013	14:55	1	r.pressure	45	1821	3
091013	14:55	1	r.item	46	1243	5
091013	14:55	1	r.luxury	47	2622	6
091013	14:55	1	r.deceit	48	2124	3
091013	14:55	1	r.loyal	49	2292	7
091013	14:55	1	r.unhappy	50	1111	4
091013	14:55	1	r.chin	51	1792	5
091013	14:55	1	r.barrel	52	2037	5
091013	14:55	1	r.habit	53	2234	5
091013	14:55	1	r.aloof	54	2519	4
091013	14:55	1	r.rigid	55	1568	3
091013	14:55	1	r.quiet	56	2943	4
091013	14:55	1	r.trunk	57	3407	6
091013	14:55	1	r.paper	58	1677	6
091013	14:55	1	r.improve	59	1543	7
091013	14:55	1	r.embarrassed	60	1903	3
091013	14:55	1	howtype	1	16719	4
091013	15:31	1	speed	1	3012	58
091013	15:31	1	error	2	2745	91
091013	15:31	1	whichhand	3	7866	Right
091013	15:31	1	f.gwone	1	5294	5
091013	15:31	1	f.meesh	2	2257	7
091013	15:31	1	f.thooch	3	2389	7
091013	15:31	1	f.swathe	4	2011	8
091013	15:31	1	f.thwogue	5	3424	3
091013	15:31	1	f.feeg	6	1574	8
091013	15:31	1	f.ploof	7	1661	8
091013	15:31	1	f.trooch	8	1432	8
091013	15:31	1	f.tafe	9	1564	7
091013	15:31	1	f.zoof	10	1803	8
091013	15:31	1	f.kreeg	11	1505	3
091013	15:31	1	f.snoom	12	1298	7
091013	15:31	1	f.grooge	13	1908	4
091013	15:31	1	f.shrathe	14	1677	2
091013	15:31	1	f.yobe	15	2168	8
091013	15:31	1	f.zape	16	2735	2
091013	15:31	1	f.voob	17	1935	7
091013	15:31	1	f.drooth	18	2288	4
091013	15:31	1	f.thague	19	1722	1
091013	15:31	1	f.boosh	20	1707	8
091013	15:31	1	f.threeth	21	3373	7
091013	15:31	1	f.gwase	22	1813	2
091013	15:31	1	f.prache	23	2657	3
091013	15:31	1	f.klabe	24	2126	2
091013	15:31	1	f.gwole	25	1742	2
091013	15:31	1	f.skathe	26	1150	2
091013	15:31	1	f.smeem	27	2429	6
091013	15:31	1	f.swogue	28	3066	2
091013	15:31	1	f.kogue	29	2373	2
091013	15:31	1	f.jote	30	1645	8
091013	15:31	1	f.thrave	31	1841	5
091013	15:31	1	f.gleese	32	3197	4
091013	15:31	1	f.gwale	33	1923	3
091013	15:31	1	f.shroze	34	1452	2
091013	15:31	1	f.toog	35	1928	6
091013	15:31	1	f.proshe	36	2336	3
091013	15:31	1	f.gweeth	37	1880	2
091013	15:31	1	f.zafe	38	2171	2
091013	15:31	1	f.greeb	39	4170	2
091013	15:31	1	f.steef	40	3810	6
091013	15:31	1	f.frooth	41	1535	3
091013	15:31	1	f.dwooth	42	1351	2
091013	15:31	1	f.frooge	43	3303	3
091013	15:31	1	f.vabe	44	1753	5
091013	15:31	1	f.prote	45	1881	3
091013	15:31	1	f.frague	46	1843	1
091013	15:31	1	f.fabe	47	2087	6
091013	15:31	1	f.smase	48	4961	2
091013	15:31	1	f.nashe	49	1490	2
091013	15:31	1	f.bague	50	1164	2
091013	15:31	1	f.fleeg	51	2931	3
091013	15:31	1	f.frape	52	8883	2
091013	15:31	1	f.snache	53	2536	6
091013	15:31	1	f.thweer	54	2089	2
091013	15:31	1	f.thwooge	55	1467	1
091013	15:31	1	f.tware	56	1750	2
091013	15:31	1	f.fleech	57	4030	6
091013	15:31	1	f.thwache	58	1315	1
091013	15:31	1	f.thrague	59	724	1
091013	15:31	1	f.fleeth	60	1356	2
091013	15:31	1	r.slap	1	1924	6
091013	15:31	1	r.patient	2	1542	3
091013	15:31	1	r.watch	3	1614	4
091013	15:31	1	r.hurt	4	1764	7
091013	15:31	1	r.brother	5	2690	8
091013	15:31	1	r.black	6	1749	4
091013	15:31	1	r.bomb	7	3172	2
091013	15:31	1	r.pleasure	8	1996	9
091013	15:31	1	r.talent	9	1897	6
091013	15:31	1	r.rescue	10	3380	4
091013	15:31	1	r.sin	11	1618	7
091013	15:31	1	r.savior	12	1927	6
091013	15:31	1	r.palace	13	1664	9
091013	15:31	1	r.carefree	14	1235	8
091013	15:31	1	r.coast	15	2087	9
091013	15:31	1	r.rejected	16	1425	1
091013	15:31	1	r.illness	17	1814	1
091013	15:31	1	r.wedding	18	2259	9
091013	15:31	1	r.detest	19	1302	2
091013	15:31	1	r.promotion	20	2272	8
091013	15:31	1	r.discouraged	21	1355	3
091013	15:31	1	r.humor	22	3274	8
091013	15:31	1	r.alcoholic	23	3678	1
091013	15:31	1	r.food	24	1481	9
091013	15:31	1	r.grenade	25	1331	1
091013	15:31	1	r.cash	26	1891	8
091013	15:31	1	r.couple	27	2188	9
091013	15:31	1	r.lightbulb	28	2908	5
091013	15:31	1	r.rabies	29	1694	3
091013	15:31	1	r.song	30	1896	7
091013	15:31	1	r.deformed	31	2385	2
091013	15:31	1	r.sky	32	2488	7
091013	15:31	1	r.vehicle	33	2723	8
091013	15:31	1	r.nursery	34	1540	8
091013	15:31	1	r.subdued	35	3260	3
091013	15:31	1	r.offend	36	1376	2
091013	15:31	1	r.fascinate	37	1495	8
091013	15:31	1	r.enraged	38	3272	2
091013	15:31	1	r.luxury	39	1780	9
091013	15:31	1	r.gentle	40	3962	8
091013	15:31	1	r.spider	41	2834	1
091013	15:31	1	r.hell	42	822	1
091013	15:31	1	r.trunk	43	1867	6
091013	15:31	1	r.awed	44	3014	7
091013	15:31	1	r.employment	45	1652	8
091013	15:31	1	r.street	46	1855	3
091013	15:31	1	r.nasty	47	1738	2
091013	15:31	1	r.god	48	2387	4
091013	15:31	1	r.curtains	49	2865	3
091013	15:31	1	r.foot	50	1709	4
091013	15:31	1	r.chance	51	1446	6
091013	15:31	1	r.reunion	52	6113	7
091013	15:31	1	r.quart	53	6092	3
091013	15:31	1	r.desire	54	2351	8
091013	15:31	1	r.spray	55	1847	6
091013	15:31	1	r.zest	56	1851	7
091013	15:31	1	r.abduction	57	1807	1
091013	15:31	1	r.infatuation	58	2244	7
091013	15:31	1	r.woman	59	1568	6
091013	15:31	1	r.insolent	60	5279	2
091013	15:31	1	howtype	1	6849	6
091013	15:56	1	speed	1	3160	45
091013	15:56	1	error	2	3011	97
091013	15:56	1	whichhand	3	7435	Right
091013	15:56	1	r.coin	1	8761	6
091013	15:56	1	r.alien	2	2875	4
091013	15:56	1	r.autumn	3	3823	7
091013	15:56	1	r.promotion	4	2228	9
091013	15:56	1	r.freedom	5	2296	9
091013	15:56	1	r.leisurely	6	2858	6
091013	15:56	1	r.disgusted	7	3430	1
091013	15:56	1	r.ketchup	8	1939	3
091013	15:56	1	r.manner	9	3443	2
091013	15:56	1	r.offend	10	4424	2
091013	15:56	1	r.millionaire	11	2598	9
091013	15:56	1	r.infant	12	3948	5
091013	15:56	1	r.frigid	13	2860	3
091013	15:56	1	r.lightbulb	14	3816	4
091013	15:56	1	r.lavish	15	8149	7
091013	15:56	1	r.cord	16	5607	7
091013	15:56	1	r.nonchalant	17	4038	4
091013	15:56	1	r.crucify	18	3155	1
091013	15:56	1	r.rape	19	1523	1
091013	15:56	1	r.optimism	20	3084	8
091013	15:56	1	r.coarse	21	4143	6
091013	15:56	1	r.agility	22	5824	7
091013	15:56	1	r.jolly	23	2422	7
091013	15:56	1	r.urine	24	2923	3
091013	15:56	1	r.nuisance	25	2124	2
091013	15:56	1	r.assassin	26	2574	3
091013	15:56	1	r.tennis	27	3309	4
091013	15:56	1	r.runner	28	1974	6
091013	15:56	1	r.hate	29	2094	2
091013	15:56	1	r.sissy	30	2839	4
091013	15:56	1	r.rock	31	4404	7
091013	15:56	1	r.banner	32	3114	5
091013	15:56	1	r.beggar	33	3420	2
091013	15:56	1	r.serious	34	4297	6
091013	15:56	1	r.secure	35	4108	9
091013	15:56	1	r.machine	36	3478	7
091013	15:56	1	r.scissors	37	2994	3
091013	15:56	1	r.friendly	38	4751	6
091013	15:56	1	r.learn	39	3160	5
091013	15:56	1	r.moment	40	3432	7
091013	15:56	1	r.spirit	41	1597	8
091013	15:56	1	r.bland	42	7234	3
091013	15:56	1	r.basket	43	2969	6
091013	15:56	1	r.poison	44	2136	1
091013	15:56	1	r.trash	45	3088	2
091013	15:56	1	r.orgasm	46	4251	8
091013	15:56	1	r.christmas	47	5287	8
091013	15:56	1	r.engine	48	10275	5
091013	15:56	1	r.termite	49	2344	2
091013	15:56	1	r.bar	50	2024	4
091013	15:56	1	r.zest	51	2781	6
091013	15:56	1	r.sun	52	1628	5
091013	15:56	1	r.famous	53	3152	9
091013	15:56	1	r.prairie	54	9352	6
091013	15:56	1	r.foul	55	2107	2
091013	15:56	1	r.computer	56	1717	7
091013	15:56	1	r.safe	57	2797	8
091013	15:56	1	r.flower	58	1659	6
091013	15:56	1	r.miracle	59	1838	9
091013	15:56	1	r.magical	60	1875	9
091013	15:56	1	f.skogue	1	4965	5
091013	15:56	1	f.gloge	2	2134	2
091013	15:56	1	f.kwague	3	2302	7
091013	15:56	1	f.speeve	4	4704	2
091013	15:56	1	f.foche	5	2858	5
091013	15:56	1	f.twoose	6	3502	8
091013	15:56	1	f.dweese	7	2288	6
091013	15:56	1	f.gwoosh	8	3187	3
091013	15:56	1	f.trook	9	7530	8
091013	15:56	1	f.zooth	10	4236	7
091013	15:56	1	f.jooth	11	11065	6
091013	15:56	1	f.kreege	12	2208	1
091013	15:56	1	f.thrame	13	2077	9
091013	15:56	1	f.spote	14	3720	3
091013	15:56	1	f.ploche	15	2313	8
091013	15:56	1	f.joog	16	4107	1
091013	15:56	1	f.gwole	17	2861	5
091013	15:56	1	f.brare	18	4881	6
091013	15:56	1	f.jague	19	2908	5
091013	15:56	1	f.thache	20	1582	5
091013	15:56	1	f.skome	21	3068	7
091013	15:56	1	f.toove	22	2264	3
091013	15:56	1	f.broob	23	3923	2
091013	15:56	1	f.snooth	24	5460	8
091013	15:56	1	f.grache	25	5737	5
091013	15:56	1	f.moob	26	4922	5
091013	15:56	1	f.smoog	27	7076	6
091013	15:56	1	f.twobe	28	4345	4
091013	15:56	1	f.vake	29	2785	2
091013	15:56	1	f.chade	30	4952	3
091013	15:56	1	f.kleed	31	1625	2
091013	15:56	1	f.shrague	32	4206	1
091013	15:56	1	f.thrache	33	7964	2
091013	15:56	1	f.thweed	34	4381	4
091013	15:56	1	f.snoge	35	3237	8
091013	15:56	1	f.swame	36	4866	6
091013	15:56	1	f.sabe	37	5341	7
091013	15:56	1	f.vade	38	8143	5
091013	15:56	1	f.noge	39	5633	7
091013	15:56	1	f.skashe	40	4222	5
091013	15:56	1	f.ploof	41	2668	3
091013	15:56	1	f.sweeve	42	2679	5
091013	15:56	1	f.krofe	43	2714	3
091013	15:56	1	f.steeg	44	4939	6
091013	15:56	1	f.krooge	45	4284	1
091013	15:56	1	f.dweem	46	2504	7
091013	15:56	1	f.thwathe	47	8058	9
091013	15:56	1	f.twole	48	3207	2
091013	15:56	1	f.soosh	49	4429	6
091013	15:56	1	f.noosh	50	5386	7
091013	15:56	1	f.kwoge	51	1914	3
091013	15:56	1	f.zoke	52	4531	5
091013	15:56	1	f.shrase	53	2773	3
091013	15:56	1	f.kwose	54	1884	6
091013	15:56	1	f.thwoke	55	2117	2
091013	15:56	1	f.flague	56	2191	1
091013	15:56	1	f.skafe	57	2782	8
091013	15:56	1	f.bleef	58	2764	9
091013	15:56	1	f.drathe	59	2771	2
091013	15:56	1	f.shrane	60	2051	1
091013	15:56	1	howtype	1	17533	6
091613	12:58	1	speed	1	12612	29
091613	13:01	1	speed	1	4100	29
091613	13:01	1	error	2	2157	100
091613	13:01	1	whichhand	3	19115	right
091613	13:01	1	r.treasure	1	8712	7
091613	13:01	1	r.tank	2	4876	3
091613	13:01	1	r.idol	3	5151	3
091613	13:01	1	r.rusty	4	2511	1
091613	13:01	1	r.paper	5	2585	4
091613	13:01	1	r.mildew	6	3047	1
091613	13:01	1	r.fireworks	7	2515	8
091613	13:01	1	r.honest	8	2348	9
091613	13:01	1	r.sweetheart	9	1469	9
091613	13:01	1	r.truth	10	1119	9
091613	13:01	1	r.danger	11	2672	1
091613	13:01	1	r.aloof	12	3068	4
091613	13:01	1	r.morgue	13	3055	1
091613	13:01	1	r.optimism	14	6475	4
091613	13:01	1	r.bathtub	15	1631	1
091613	13:01	1	r.agony	16	2892	4
091613	13:01	1	r.bus	17	2662	4
091613	13:01	1	r.daylight	18	2370	9
091613	13:01	1	r.secure	19	1249	9
091613	13:01	1	r.icebox	20	4156	5
091613	13:01	1	r.destruction	21	1869	1
091613	13:01	1	r.rattle	22	1976	1
091613	13:01	1	r.foul	23	1198	1
091613	13:01	1	r.memories	24	2276	9
091613	13:01	1	r.aroused	25	2798	5
091613	13:01	1	r.locker	26	6652	2
091613	13:01	1	r.dead	27	1561	1
091613	13:01	1	r.ship	28	2815	6
091613	13:01	1	r.devoted	29	2478	8
091613	13:01	1	r.spray	30	3248	5
091613	13:01	1	r.displeased	31	2100	5
091613	13:01	1	r.elegant	32	2966	9
091613	13:01	1	r.resent	33	3285	5
091613	13:01	1	r.mother	34	2608	9
091613	13:01	1	r.comedy	35	2142	9
091613	13:01	1	r.sexy	36	1614	9
091613	13:01	1	r.sinful	37	5155	4
091613	13:01	1	r.triumphant	38	2092	4
091613	13:01	1	r.nourish	39	3182	5
091613	13:01	1	r.hit	40	1885	1
091613	13:01	1	r.slime	41	1759	1
091613	13:01	1	r.razor	42	1644	1
091613	13:01	1	r.sunrise	43	1912	9
091613	13:01	1	r.book	44	2177	5
091613	13:01	1	r.butterfly	45	1696	9
091613	13:01	1	r.casino	46	2561	3
091613	13:01	1	r.voyage	47	2729	5
091613	13:01	1	r.listless	48	1873	5
091613	13:01	1	r.reward	49	2420	9
091613	13:01	1	r.cold	50	1897	1
091613	13:01	1	r.joy	51	1944	9
091613	13:01	1	r.passion	52	1329	9
091613	13:01	1	r.pig	53	1874	5
091613	13:01	1	r.cheer	54	3949	2
091613	13:01	1	r.gentle	55	2133	9
091613	13:01	1	r.damage	56	2574	1
091613	13:01	1	r.cow	57	2589	2
091613	13:01	1	r.wine	58	4076	7
091613	13:01	1	r.rainbow	59	1679	9
091613	13:01	1	r.depressed	60	1529	1
091613	13:01	1	f.chale	1	3869	3
091613	13:01	1	f.shreep	2	2313	1
091613	13:01	1	f.drooch	3	4226	3
091613	13:01	1	f.troom	4	2343	1
091613	13:01	1	f.prate	5	3102	5
091613	13:01	1	f.zabe	6	2177	5
091613	13:01	1	f.sheech	7	1503	5
091613	13:01	1	f.toge	8	857	5
091613	13:01	1	f.shrooge	9	788	5
091613	13:01	1	f.preem	10	882	5
091613	13:01	1	f.yame	11	2213	5
091613	13:01	1	f.drooge	12	866	5
091613	13:01	1	f.boosh	13	2636	1
091613	13:01	1	f.spathe	14	2241	4
091613	13:01	1	f.gwole	15	1389	5
091613	13:01	1	f.slobe	16	2347	1
091613	13:01	1	f.grobe	17	915	1
091613	13:01	1	f.steeb	18	1515	1
091613	13:01	1	f.voop	19	1797	4
091613	13:01	1	f.snage	20	1354	5
091613	13:01	1	f.thwogue	21	714	5
091613	13:01	1	f.doog	22	642	5
091613	13:01	1	f.prothe	23	518	5
091613	13:01	1	f.klobe	24	519	5
091613	13:01	1	f.shreege	25	623	5
091613	13:01	1	f.twache	26	412	5
091613	13:01	1	f.nooge	27	384	5
091613	13:01	1	f.blage	28	414	5
091613	13:01	1	f.proge	29	819	5
091613	13:01	1	f.bleege	30	447	5
091613	13:01	1	f.yane	31	347	5
091613	13:01	1	f.drafe	32	369	5
091613	13:01	1	f.skobe	33	456	5
091613	13:01	1	f.proosh	34	539	4
091613	13:01	1	f.spabe	35	691	4
091613	13:01	1	f.dweege	36	341	5
091613	13:01	1	f.kwague	37	437	5
091613	13:01	1	f.dwothe	38	1015	5
091613	13:01	1	f.smone	39	270	5
091613	13:01	1	f.yoot	40	335	5
091613	13:01	1	f.dwooge	41	248	5
091613	13:01	1	f.twome	42	403	4
091613	13:01	1	f.troche	43	272	5
091613	13:01	1	f.shreese	44	491	5
091613	13:01	1	f.trabe	45	565	5
091613	13:01	1	f.kroosh	46	707	4
091613	13:01	1	f.swogue	47	924	5
091613	13:01	1	f.glofe	48	733	5
091613	13:01	1	f.twothe	49	493	4
091613	13:01	1	f.blothe	50	629	5
091613	13:01	1	f.kroof	51	1770	5
091613	13:01	1	f.sname	52	513	4
091613	13:01	1	f.jame	53	338	5
091613	13:01	1	f.lashe	54	650	5
091613	13:01	1	f.twame	55	597	5
091613	13:01	1	f.gwafe	56	570	5
091613	13:01	1	f.brathe	57	641	5
091613	13:01	1	f.shobe	58	1061	5
091613	13:01	1	f.kweech	59	887	5
091613	13:01	1	f.smeesh	60	873	5
091613	13:01	1	howtype	1	32221	1
091613	15:21	1	speed	1	8766	67
091613	15:21	1	error	2	3849	97
091613	15:21	1	whichhand	3	6294	right
091613	15:21	1	r.grin	1	6569	7
091613	15:21	1	r.journal	2	6618	4
091613	15:21	1	r.golfer	3	6800	4
091613	15:21	1	r.elegant	4	3328	7
091613	15:21	1	r.hairpin	5	4352	6
091613	15:21	1	r.perfection	6	4689	9
091613	15:21	1	r.sailboat	7	1813	8
091613	15:21	1	r.engine	8	2458	3
091613	15:21	1	r.millionaire	9	2030	9
091613	15:21	1	r.activate	10	2321	7
091613	15:21	1	r.month	11	2427	6
091613	15:21	1	r.doctor	12	2320	5
091613	15:21	1	r.filth	13	2641	1
091613	15:21	1	r.corridor	14	3758	6
091613	15:21	1	r.rabies	15	1878	2
091613	15:21	1	r.handicap	16	3121	3
091613	15:21	1	r.toxic	17	1687	2
091613	15:21	1	r.refreshment	18	2492	7
091613	15:21	1	r.hate	19	5494	4
091613	15:21	1	r.restaurant	20	2105	7
091613	15:21	1	r.masturbate	21	1651	3
091613	15:21	1	r.strong	22	1686	8
091613	15:21	1	r.invest	23	2169	7
091613	15:21	1	r.building	24	2943	5
091613	15:21	1	r.bland	25	2806	3
091613	15:21	1	r.tower	26	2518	5
091613	15:21	1	r.custom	27	1487	5
091613	15:21	1	r.jail	28	3201	1
091613	15:21	1	r.greet	29	2408	7
091613	15:21	1	r.mushroom	30	3678	6
091613	15:21	1	r.context	31	2248	4
091613	15:21	1	r.dreadful	32	1852	3
091613	15:21	1	r.tree	33	2176	5
091613	15:21	1	r.mucus	34	1894	3
091613	15:21	1	r.dump	35	1992	3
091613	15:21	1	r.luscious	36	2310	7
091613	15:21	1	r.panic	37	1943	3
091613	15:21	1	r.radiant	38	2431	8
091613	15:21	1	r.queen	39	1731	8
091613	15:21	1	r.hurt	40	2700	2
091613	15:21	1	r.sleep	41	2445	7
091613	15:21	1	r.repentant	42	3018	6
091613	15:21	1	r.interest	43	2438	7
091613	15:21	1	r.adorable	44	1787	9
091613	15:21	1	r.grass	45	1440	5
091613	15:21	1	r.disdainful	46	2381	3
091613	15:21	1	r.outdoors	47	1828	7
091613	15:21	1	r.disloyal	48	2272	1
091613	15:21	1	r.wasp	49	4635	2
091613	15:21	1	r.allergy	50	1305	3
091613	15:21	1	r.listless	51	2089	1
091613	15:21	1	r.aroused	52	3444	4
091613	15:21	1	r.snow	53	2280	7
091613	15:21	1	r.addict	54	1618	1
091613	15:21	1	r.ankle	55	2256	4
091613	15:21	1	r.cabinet	56	2059	5
091613	15:21	1	r.pamphlet	57	1543	6
091613	15:21	1	r.patient	58	1590	6
091613	15:21	1	r.innocent	59	3020	7
091613	15:21	1	r.insult	60	1865	2
091613	15:21	1	f.nooch	1	6342	3
091613	15:21	1	f.yabe	2	3477	5
091613	15:21	1	f.doog	3	2457	5
091613	15:21	1	f.thware	4	2949	4
091613	15:21	1	f.smooge	5	1442	7
091613	15:21	1	f.blofe	6	1841	4
091613	15:21	1	f.snoon	7	1972	7
091613	15:21	1	f.shreep	8	2011	6
091613	15:21	1	f.thween	9	936	6
091613	15:21	1	f.klood	10	3624	5
091613	15:21	1	f.glathe	11	1246	5
091613	15:21	1	f.kogue	12	1385	5
091613	15:21	1	f.dwale	13	1447	3
091613	15:21	1	f.sheeb	14	1483	6
091613	15:21	1	f.ploor	15	1973	4
091613	15:21	1	f.shroog	16	1733	3
091613	15:21	1	f.kreesh	17	1028	4
091613	15:21	1	f.jate	18	1128	4
091613	15:21	1	f.bleege	19	1192	3
091613	15:21	1	f.snome	20	2669	3
091613	15:21	1	f.thwoosh	21	2089	8
091613	15:21	1	f.speet	22	1236	6
091613	15:21	1	f.pothe	23	1497	4
091613	15:21	1	f.gleef	24	1034	4
091613	15:21	1	f.choob	25	2709	6
091613	15:21	1	f.keeb	26	934	5
091613	15:21	1	f.kwoosh	27	1334	6
091613	15:21	1	f.kreeb	28	1143	5
091613	15:21	1	f.gwoon	29	1614	7
091613	15:21	1	f.dobe	30	1532	3
091613	15:21	1	f.prooge	31	1531	6
091613	15:21	1	f.smashe	32	899	5
091613	15:21	1	f.chague	33	1109	5
091613	15:21	1	f.seech	34	1733	4
091613	15:21	1	f.droge	35	1133	5
091613	15:21	1	f.throok	36	1030	5
091613	15:21	1	f.zake	37	1531	3
091613	15:21	1	f.dreeg	38	1194	3
091613	15:21	1	f.broge	39	1870	4
091613	15:21	1	f.drathe	40	1162	4
091613	15:21	1	f.frooch	41	1833	6
091613	15:21	1	f.sweech	42	885	6
091613	15:21	1	f.gwoche	43	2199	4
091613	15:21	1	f.koog	44	998	5
091613	15:21	1	f.thwome	45	803	5
091613	15:21	1	f.groor	46	1529	3
091613	15:21	1	f.tove	47	1488	7
091613	15:21	1	f.snooge	48	1762	7
091613	15:21	1	f.zeesh	49	1689	4
091613	15:21	1	f.slool	50	938	6
091613	15:21	1	f.kabe	51	1922	6
091613	15:21	1	f.thwooze	52	1316	5
091613	15:21	1	f.yobe	53	1157	6
091613	15:21	1	f.slase	54	843	6
091613	15:21	1	f.plave	55	1375	4
091613	15:21	1	f.sheeg	56	1149	4
091613	15:21	1	f.thwoove	57	1500	6
091613	15:21	1	f.krare	58	1541	6
091613	15:21	1	f.throke	59	1563	4
091613	15:21	1	f.bague	60	1381	3
091613	15:21	1	howtype	1	9946	7
091613	15:30	1	speed	1	4560	30
091613	15:30	1	error	2	3429	100
091613	15:30	1	whichhand	3	7242	right
091613	15:30	1	f.floop	1	2490	1
091613	15:30	1	f.dweeth	2	2725	2
091613	15:30	1	f.soshe	3	2358	1
091613	15:30	1	f.fague	4	2094	5
091613	15:30	1	f.thwoon	5	1744	1
091613	15:30	1	f.yafe	6	920	1
091613	15:30	1	f.chage	7	1991	1
091613	15:30	1	f.pague	8	1871	1
091613	15:30	1	f.joshe	9	2569	5
091613	15:30	1	f.swooge	10	3161	5
091613	15:30	1	f.broosh	11	2024	1
091613	15:30	1	f.flope	12	1662	1
091613	15:30	1	f.shreeze	13	3649	1
091613	15:30	1	f.slogue	14	2101	5
091613	15:30	1	f.yose	15	1510	1
091613	15:30	1	f.dweem	16	1063	1
091613	15:30	1	f.brare	17	785	1
091613	15:30	1	f.lashe	18	3480	5
091613	15:30	1	f.meef	19	1395	1
091613	15:30	1	f.zare	20	1153	1
091613	15:30	1	f.frofe	21	2136	1
091613	15:30	1	f.gloosh	22	1721	1
091613	15:30	1	f.shrore	23	794	1
091613	15:30	1	f.chale	24	975	1
091613	15:30	1	f.dwoke	25	918	1
091613	15:30	1	f.yooch	26	743	1
091613	15:30	1	f.shrool	27	2469	5
091613	15:30	1	f.zeeth	28	954	1
091613	15:30	1	f.yogue	29	3033	1
091613	15:30	1	f.threech	30	869	1
091613	15:30	1	f.thoove	31	9384	1
091613	15:30	1	f.smoop	32	2961	1
091613	15:30	1	f.plore	33	4808	1
091613	15:30	1	f.kwoove	34	878	1
091613	15:30	1	f.skogue	35	1136	1
091613	15:30	1	f.dreef	36	777	1
091613	15:30	1	f.thwode	37	551	1
091613	15:30	1	f.preech	38	1285	1
091613	15:30	1	f.slale	39	776	1
091613	15:30	1	f.bloob	40	1798	1
091613	15:30	1	f.groor	41	1018	1
091613	15:30	1	f.grogue	42	952	1
091613	15:30	1	f.choog	43	766	1
091613	15:30	1	f.thwate	44	694	1
091613	15:30	1	f.zeeb	45	839	1
091613	15:30	1	f.skoove	46	908	1
091613	15:30	1	f.thothe	47	685	1
091613	15:30	1	f.smague	48	783	1
091613	15:30	1	f.thoon	49	965	1
091613	15:30	1	f.preek	50	2499	1
091613	15:30	1	f.shroge	51	549	1
091613	15:30	1	f.stobe	52	669	1
091613	15:30	1	f.bloog	53	2342	1
091613	15:30	1	f.slooch	54	934	1
091613	15:30	1	f.sooch	55	503	1
091613	15:30	1	f.cheel	56	1000	1
091613	15:30	1	f.drogue	57	1358	1
091613	15:30	1	f.gwane	58	749	1
091613	15:30	1	f.reesh	59	2140	1
091613	15:30	1	f.thweek	60	740	1
091613	15:30	1	r.home	1	1736	9
091613	15:30	1	r.hate	2	3751	1
091613	15:30	1	r.thrill	3	3824	5
091613	15:30	1	r.tomb	4	2862	1
091613	15:30	1	r.breeze	5	1986	9
091613	15:30	1	r.humiliate	6	1872	1
091613	15:30	1	r.stupid	7	1331	1
091613	15:30	1	r.spray	8	1779	5
091613	15:30	1	r.wit	9	2249	1
091613	15:30	1	r.trouble	10	1485	1
091613	15:30	1	r.scar	11	1463	5
091613	15:30	1	r.toxic	12	1250	1
091613	15:30	1	r.tobacco	13	862	1
091613	15:30	1	r.terrorist	14	953	1
091613	15:30	1	r.nuisance	15	1943	1
091613	15:30	1	r.clumsy	16	1831	5
091613	15:30	1	r.misery	17	2003	5
091613	15:30	1	r.rainbow	18	3553	9
091613	15:30	1	r.stool	19	2402	5
091613	15:30	1	r.scorching	20	1992	1
091613	15:30	1	r.confused	21	1558	5
091613	15:30	1	r.wounds	22	1421	1
091613	15:30	1	r.face	23	2250	9
091613	15:30	1	r.exercise	24	2150	9
091613	15:30	1	r.blue	25	2638	5
091613	15:30	1	r.knife	26	1210	1
091613	15:30	1	r.color	27	951	5
091613	15:30	1	r.icebox	28	1308	5
091613	15:30	1	r.secure	29	2031	9
091613	15:30	1	r.heart	30	2548	5
091613	15:30	1	r.infant	31	1499	9
091613	15:30	1	r.love	32	982	9
091613	15:30	1	r.afraid	33	1707	1
091613	15:30	1	r.romantic	34	1381	9
091613	15:30	1	r.disturb	35	1859	5
091613	15:30	1	r.garbage	36	1581	1
091613	15:30	1	r.dinner	37	1547	9
091613	15:30	1	r.violent	38	1316	1
091613	15:30	1	r.valentine	39	1421	9
091613	15:30	1	r.doll	40	1233	5
091613	15:30	1	r.devoted	41	2029	9
091613	15:30	1	r.answer	42	1890	5
091613	15:30	1	r.wish	43	1404	9
091613	15:30	1	r.skull	44	1402	1
091613	15:30	1	r.life	45	2687	9
091613	15:30	1	r.jolly	46	1890	9
091613	15:30	1	r.obey	47	2173	5
091613	15:30	1	r.pressure	48	2787	1
091613	15:30	1	r.feeble	49	2034	5
091613	15:30	1	r.key	50	1207	5
091613	15:30	1	r.cord	51	933	5
091613	15:30	1	r.dignified	52	2252	5
091613	15:30	1	r.inspired	53	1537	9
091613	15:30	1	r.owl	54	991	9
091613	15:30	1	r.gloom	55	2468	5
091613	15:30	1	r.heaven	56	1424	9
091613	15:30	1	r.hopeful	57	1147	9
091613	15:30	1	r.improve	58	1188	9
091613	15:30	1	r.sick	59	1570	1
091613	15:30	1	r.mistake	60	2464	3
091613	15:30	1	howtype	1	10643	2
091613	15:45	1	speed	1	3627	49
091613	15:45	1	error	2	2703	91
091613	15:45	1	whichhand	3	5554	right
091613	15:45	1	r.stink	1	7150	3
091613	15:45	1	r.athletics	2	2400	5
091613	15:45	1	r.suspicious	3	2741	2
091613	15:45	1	r.handicap	4	2270	5
091613	15:45	1	r.timid	5	2650	4
091613	15:45	1	r.slave	6	1286	1
091613	15:45	1	r.social	7	2520	6
091613	15:45	1	r.intercourse	8	3161	8
091613	15:45	1	r.elated	9	3384	9
091613	15:45	1	r.girl	10	2807	7
091613	15:45	1	r.injury	11	1317	1
091613	15:45	1	r.crude	12	1302	2
091613	15:45	1	r.war	13	1992	1
091613	15:45	1	r.flag	14	2318	8
091613	15:45	1	r.dignified	15	1575	9
091613	15:45	1	r.butter	16	2326	6
091613	15:45	1	r.dream	17	1879	5
091613	15:45	1	r.disappoint	18	2321	2
091613	15:45	1	r.rifle	19	3170	7
091613	15:45	1	r.sugar	20	2258	5
091613	15:45	1	r.malice	21	1358	1
091613	15:45	1	r.failure	22	1405	1
091613	15:45	1	r.fearful	23	1411	1
091613	15:45	1	r.red	24	1752	5
091613	15:45	1	r.pain	25	1167	1
091613	15:45	1	r.hate	26	1062	1
091613	15:45	1	r.agony	27	1025	1
091613	15:45	1	r.hairpin	28	1926	5
091613	15:45	1	r.putrid	29	1223	1
091613	15:45	1	r.pillow	30	1569	5
091613	15:45	1	r.bullet	31	2568	5
091613	15:45	1	r.bus	32	1504	5
091613	15:45	1	r.friend	33	1937	9
091613	15:45	1	r.lion	34	1409	5
091613	15:45	1	r.muddy	35	1766	4
091613	15:45	1	r.terrible	36	1181	1
091613	15:45	1	r.egg	37	1332	5
091613	15:45	1	r.headache	38	1724	1
091613	15:45	1	r.deserter	39	1525	1
091613	15:45	1	r.morgue	40	1894	4
091613	15:45	1	r.pity	41	4351	6
091613	15:45	1	r.disgusted	42	2296	1
091613	15:45	1	r.kerosene	43	1770	5
091613	15:45	1	r.plane	44	1313	5
091613	15:45	1	r.shy	45	2361	4
091613	15:45	1	r.relaxed	46	2337	7
091613	15:45	1	r.time	47	1721	5
091613	15:45	1	r.river	48	1810	5
091613	15:45	1	r.face	49	999	5
091613	15:45	1	r.person	50	1181	5
091613	15:45	1	r.flower	51	1979	5
091613	15:45	1	r.runner	52	1857	5
091613	15:45	1	r.kindness	53	2165	9
091613	15:45	1	r.blackmail	54	1212	1
091613	15:45	1	r.restaurant	55	1569	5
091613	15:45	1	r.exercise	56	3832	4
091613	15:45	1	r.nonchalant	57	2540	5
091613	15:45	1	r.waste	58	1381	1
091613	15:45	1	r.wise	59	1707	9
091613	15:45	1	r.thermometer	60	1477	5
091613	15:45	1	f.tweep	1	5603	1
091613	15:45	1	f.feef	2	8090	2
091613	15:45	1	f.gweeze	3	3286	1
091613	15:45	1	f.zeeb	4	3097	3
091613	15:45	1	f.throof	5	3555	3
091613	15:45	1	f.floshe	6	1148	1
091613	15:45	1	f.shrooge	7	2123	2
091613	15:45	1	f.trage	8	3284	3
091613	15:45	1	f.sneed	9	3678	3
091613	15:45	1	f.gwofe	10	2354	1
091613	15:45	1	f.fooch	11	2130	3
091613	15:45	1	f.chogue	12	1954	1
091613	15:45	1	f.yeem	13	2417	5
091613	15:45	1	f.speege	14	1911	5
091613	15:45	1	f.gwache	15	1216	1
091613	15:45	1	f.swoze	16	1725	1
091613	15:45	1	f.zope	17	1990	6
091613	15:45	1	f.smooge	18	2020	5
091613	15:45	1	f.blage	19	3929	3
091613	15:45	1	f.thwood	20	2675	3
091613	15:45	1	f.thrare	21	2446	2
091613	15:45	1	f.jeef	22	1786	5
091613	15:45	1	f.geeth	23	1552	5
091613	15:45	1	f.bleeth	24	1663	5
091613	15:45	1	f.thweet	25	1579	1
091613	15:45	1	f.yoof	26	1721	6
091613	15:45	1	f.kwase	27	1146	1
091613	15:45	1	f.thwoon	28	2329	1
091613	15:45	1	f.troge	29	1722	1
091613	15:45	1	f.neege	30	1370	5
091613	15:45	1	f.neeb	31	1001	5
091613	15:45	1	f.stague	32	2783	2
091613	15:45	1	f.yoove	33	4925	7
091613	15:45	1	f.froove	34	1999	2
091613	15:45	1	f.kwoge	35	1365	1
091613	15:45	1	f.blofe	36	2276	1
091613	15:45	1	f.steeg	37	1534	4
091613	15:45	1	f.spoove	38	2239	5
091613	15:45	1	f.jeech	39	2723	4
091613	15:45	1	f.froshe	40	3236	4
091613	15:45	1	f.thrake	41	1113	1
091613	15:45	1	f.krabe	42	2130	3
091613	15:45	1	f.floog	43	2170	1
091613	15:45	1	f.krashe	44	4369	7
091613	15:45	1	f.shooch	45	2761	4
091613	15:45	1	f.yoge	46	2537	2
091613	15:45	1	f.skove	47	3345	5
091613	15:45	1	f.thafe	48	1233	1
091613	15:45	1	f.bloove	49	1454	4
091613	15:45	1	f.twole	50	1961	1
091613	15:45	1	f.slode	51	2008	5
091613	15:45	1	f.gwoze	52	1246	1
091613	15:45	1	f.thode	53	2009	5
091613	15:45	1	f.dwape	54	2622	3
091613	15:45	1	f.jothe	55	1476	1
091613	15:45	1	f.kroor	56	2230	3
091613	15:45	1	f.smeeze	57	3243	3
091613	15:45	1	f.joog	58	2111	4
091613	15:45	1	f.thwothe	59	960	1
091613	15:45	1	f.shrape	60	1647	4
091613	15:45	1	howtype	1	7794	7
091613	15:57	1	speed	1	3103	48
091613	15:57	1	error	2	2528	89
091613	15:57	1	whichhand	3	5305	right
091613	15:57	1	r.nourish	1	15277	7
091613	15:57	1	r.cemetery	2	7548	4
091613	15:57	1	r.regretful	3	6014	3
091613	15:57	1	r.seasick	4	8637	4
091613	15:57	1	r.moral	5	9227	6
091613	15:57	1	r.birthday	6	4146	9
091613	15:57	1	r.museum	7	2643	9
091613	15:57	1	r.neurotic	8	4599	5
091613	15:57	1	r.alert	9	2989	5
091613	15:57	1	r.misery	10	8604	4
091613	15:57	1	r.overwhelmed	11	4012	2
091613	15:57	1	r.ennui	12	3418	5
091613	15:57	1	r.smallpox	13	6495	3
091613	15:57	1	r.suicide	14	3091	1
091613	15:57	1	r.sailboat	15	5125	8
091613	15:57	1	r.star	16	5687	7
091613	15:57	1	r.storm	17	6131	5
091613	15:57	1	r.imagine	18	8428	8
091613	15:57	1	r.baby	19	1459	9
091613	15:57	1	r.snow	20	1374	9
091613	15:57	1	r.deceit	21	3733	1
091613	15:57	1	r.heroin	22	4518	5
091613	15:57	1	r.beverage	23	10456	7
091613	15:57	1	r.aroused	24	3198	7
091613	15:57	1	r.opinion	25	3716	5
091613	15:57	1	r.young	26	6974	6
091613	15:57	1	r.mother	27	4046	9
091613	15:57	1	r.shy	28	3403	5
091613	15:57	1	r.pig	29	3585	5
091613	15:57	1	r.bastard	30	3024	1
091613	15:57	1	r.refreshment	31	3341	8
091613	15:57	1	r.tumor	32	3158	1
091613	15:57	1	r.concentrate	33	5038	6
091613	15:57	1	r.alien	34	5660	4
091613	15:57	1	r.tower	35	1768	5
091613	15:57	1	r.flirt	36	3127	7
091613	15:57	1	r.power	37	5072	6
091613	15:57	1	r.knot	38	2180	5
091613	15:57	1	r.bored	39	4179	5
091613	15:57	1	r.aloof	40	1370	5
091613	15:57	1	r.pistol	41	6824	5
091613	15:57	1	r.meek	42	4015	5
091613	15:57	1	r.crime	43	4212	1
091613	15:57	1	r.time	44	4770	6
091613	15:57	1	r.sunset	45	3554	9
091613	15:57	1	r.bathtub	46	1499	9
091613	15:57	1	r.joyful	47	1388	9
091613	15:57	1	r.powerful	48	4266	7
091613	15:57	1	r.couple	49	3134	8
091613	15:57	1	r.saint	50	5567	7
091613	15:57	1	r.thorn	51	4335	3
091613	15:57	1	r.mold	52	2137	2
091613	15:57	1	r.vigorous	53	2937	5
091613	15:57	1	r.legend	54	2946	8
091613	15:57	1	r.girl	55	2042	9
091613	15:57	1	r.betray	56	2478	1
091613	15:57	1	r.malaria	57	2209	1
091613	15:57	1	r.tomb	58	6719	6
091613	15:57	1	r.abduction	59	3337	3
091613	15:57	1	r.moody	60	9762	4
091613	15:57	1	f.bogue	1	4445	5
091613	15:57	1	f.gwoose	2	3610	5
091613	15:57	1	f.chogue	3	10792	3
091613	15:57	1	f.drathe	4	3057	6
091613	15:57	1	f.floosh	5	4213	5
091613	15:57	1	f.preeth	6	3635	4
091613	15:57	1	f.theeg	7	2856	5
091613	15:57	1	f.smathe	8	2739	6
091613	15:57	1	f.skogue	9	6108	7
091613	15:57	1	f.shreeth	10	4143	6
091613	15:57	1	f.skove	11	1999	6
091613	15:57	1	f.slose	12	4285	5
091613	15:57	1	f.swoose	13	2528	6
091613	15:57	1	f.sneech	14	2113	3
091613	15:57	1	f.kloog	15	3618	5
091613	15:57	1	f.steesh	16	2095	5
091613	15:57	1	f.kreer	17	2993	7
091613	15:57	1	f.deeg	18	4935	5
091613	15:57	1	f.thwague	19	3489	6
091613	15:57	1	f.grague	20	6724	5
091613	15:57	1	f.weeth	21	2750	6
091613	15:57	1	f.klool	22	4566	5
091613	15:57	1	f.proche	23	2534	7
091613	15:57	1	f.weech	24	2607	3
091613	15:57	1	f.yose	25	4013	6
091613	15:57	1	f.skoshe	26	4531	8
091613	15:57	1	f.cheed	27	3364	4
091613	15:57	1	f.vage	28	5683	4
091613	15:57	1	f.zafe	29	3943	5
091613	15:57	1	f.threer	30	2648	6
091613	15:57	1	f.sneeb	31	5308	4
091613	15:57	1	f.prooth	32	3839	7
091613	15:57	1	f.slogue	33	3586	3
091613	15:57	1	f.skothe	34	2530	6
091613	15:57	1	f.slale	35	2459	5
091613	15:57	1	f.kwade	36	4030	7
091613	15:57	1	f.bloshe	37	4203	6
091613	15:57	1	f.prooch	38	7402	6
091613	15:57	1	f.thwope	39	2353	5
091613	15:57	1	f.sheeg	40	2985	5
091613	15:57	1	f.pleech	41	1688	4
091613	15:57	1	f.stobe	42	5386	6
091613	15:57	1	f.shrague	43	4946	3
091613	15:57	1	f.jeeg	44	1659	5
091613	15:57	1	f.wague	45	2126	5
091613	15:57	1	f.teef	46	6111	7
091613	15:57	1	f.toove	47	3289	6
091613	15:57	1	f.ploke	48	2028	5
091613	15:57	1	f.smave	49	3976	7
091613	15:57	1	f.chothe	50	4072	4
091613	15:57	1	f.floob	51	3667	4
091613	15:57	1	f.thogue	52	8007	5
091613	15:57	1	f.plool	53	4854	6
091613	15:57	1	f.zode	54	1770	5
091613	15:57	1	f.snase	55	3594	3
091613	15:57	1	f.shroog	56	3808	2
091613	15:57	1	f.gwoon	57	7062	4
091613	15:57	1	f.gothe	58	3635	5
091613	15:57	1	f.shooch	59	6488	5
091613	15:57	1	f.thweef	60	8860	5
091613	15:57	1	howtype	1	17264	7
091713	10:08	1	speed	1	2741	44
091713	10:08	1	error	2	3018	100
091713	10:08	1	whichhand	3	11975	right
091713	10:08	1	r.admired	1	15643	9
091713	10:08	1	r.vision	2	7323	9
091713	10:08	1	r.lively	3	6430	8
091713	10:08	1	r.alien	4	23684	2
091713	10:08	1	r.valentine	5	4302	5
091713	10:08	1	r.measles	6	3033	3
091713	10:08	1	r.hammer	7	1821	6
091713	10:08	1	r.maniac	8	1386	3
091713	10:08	1	r.obesity	9	2544	2
091713	10:08	1	r.triumph	10	2040	5
091713	10:08	1	r.board	11	1340	4
091713	10:08	1	r.helpless	12	3189	1
091713	10:08	1	r.storm	13	2131	5
091713	10:08	1	r.embarrassed	14	2715	3
091713	10:08	1	r.grass	15	2053	7
091713	10:08	1	r.sick	16	1801	1
091713	10:08	1	r.foot	17	5134	5
091713	10:08	1	r.pus	18	944	4
091713	10:08	1	r.blond	19	999	3
091713	10:08	1	r.cuisine	20	2549	7
091713	10:08	1	r.mother	21	5476	9
091713	10:08	1	r.loved	22	1224	8
091713	10:08	1	r.heart	23	1404	8
091713	10:08	1	r.dreary	24	1290	2
091713	10:08	1	r.sour	25	909	3
091713	10:08	1	r.soothe	26	1075	3
091713	10:08	1	r.paper	27	3683	5
091713	10:08	1	r.noisy	28	1405	2
091713	10:08	1	r.vest	29	1379	2
091713	10:08	1	r.toxic	30	1472	1
091713	10:08	1	r.pamphlet	31	1515	4
091713	10:08	1	r.frustrated	32	1044	8
091713	10:08	1	r.cell	33	1728	5
091713	10:08	1	r.unfaithful	34	2208	2
091713	10:08	1	r.inspired	35	1526	1
091713	10:08	1	r.hotel	36	1654	4
091713	10:08	1	r.tank	37	1986	9
091713	10:08	1	r.silk	38	1040	8
091713	10:08	1	r.imagine	39	860	8
091713	10:08	1	r.garter	40	1935	4
091713	10:08	1	r.elbow	41	1167	2
091713	10:08	1	r.dirty	42	1766	1
091713	10:08	1	r.metal	43	1501	1
091713	10:08	1	r.stomach	44	2014	3
091713	10:08	1	r.leprosy	45	1003	4
091713	10:08	1	r.tamper	46	2032	8
091713	10:08	1	r.salute	47	4293	4
091713	10:08	1	r.rifle	48	4175	3
091713	10:08	1	r.mosquito	49	1582	1
091713	10:08	1	r.graduate	50	2524	8
091713	10:08	1	r.clouds	51	1518	3
091713	10:08	1	r.tense	52	1527	5
091713	10:08	1	r.abduction	53	2519	2
091713	10:08	1	r.blackmail	54	1382	7
091713	10:08	1	r.impair	55	1772	5
091713	10:08	1	r.crown	56	963	3
091713	10:08	1	r.anxious	57	1906	2
091713	10:08	1	r.profit	58	1516	6
091713	10:08	1	r.education	59	1717	9
091713	10:08	1	r.shark	60	1526	4
091713	10:08	1	f.dwage	1	3533	7
091713	10:08	1	f.troog	2	830	3
091713	10:08	1	f.gweeb	3	826	3
091713	10:08	1	f.preek	4	558	3
091713	10:08	1	f.tweel	5	838	6
091713	10:08	1	f.toove	6	722	4
091713	10:08	1	f.threer	7	611	3
091713	10:08	1	f.sheese	8	903	3
091713	10:08	1	f.droose	9	592	3
091713	10:08	1	f.glashe	10	990	2
091713	10:08	1	f.chode	11	716	2
091713	10:08	1	f.throoge	12	949	2
091713	10:08	1	f.dwathe	13	628	3
091713	10:08	1	f.gwate	14	752	3
091713	10:08	1	f.dreeze	15	784	7
091713	10:08	1	f.nache	16	533	7
091713	10:08	1	f.zothe	17	349	4
091713	10:08	1	f.frogue	18	413	6
091713	10:08	1	f.sloob	19	265	6
091713	10:08	1	f.prote	20	452	4
091713	10:08	1	f.skothe	21	311	6
091713	10:08	1	f.noof	22	271	6
091713	10:08	1	f.proshe	23	490	3
091713	10:08	1	f.smogue	24	620	3
091713	10:08	1	f.shreef	25	560	3
091713	10:08	1	f.froge	26	527	3
091713	10:08	1	f.drache	27	550	3
091713	10:08	1	f.thweeve	28	758	8
091713	10:08	1	f.kleeg	29	461	7
091713	10:08	1	f.thware	30	664	2
091713	10:08	1	f.joshe	31	1458	2
091713	10:08	1	f.shreesh	32	534	4
091713	10:08	1	f.tweege	33	806	8
091713	10:08	1	f.zake	34	691	3
091713	10:08	1	f.prooge	35	1005	6
091713	10:08	1	f.cheed	36	819	3
091713	10:08	1	f.swoog	37	671	5
091713	10:08	1	f.smaze	38	482	5
091713	10:08	1	f.thate	39	532	5
091713	10:08	1	f.twool	40	795	2
091713	10:08	1	f.tweeth	41	1521	3
091713	10:08	1	f.joog	42	818	7
091713	10:08	1	f.bloge	43	1182	3
091713	10:08	1	f.plale	44	773	3
091713	10:08	1	f.mathe	45	803	3
091713	10:08	1	f.thwoche	46	432	4
091713	10:08	1	f.snofe	47	580	7
091713	10:08	1	f.prashe	48	842	4
091713	10:08	1	f.pleesh	49	478	3
091713	10:08	1	f.gwool	50	968	3
091713	10:08	1	f.swoze	51	495	7
091713	10:08	1	f.flove	52	560	3
091713	10:08	1	f.wooth	53	271	6
091713	10:08	1	f.peeg	54	457	3
091713	10:08	1	f.thoke	55	692	6
091713	10:08	1	f.stobe	56	630	4
091713	10:08	1	f.sneege	57	410	3
091713	10:08	1	f.slale	58	783	3
091713	10:08	1	f.droof	59	541	8
091713	10:08	1	f.pobe	60	660	7
091713	10:08	1	howtype	1	15878	7
091713	12:55	1	speed	1	3066	35
091713	12:55	1	error	2	2727	100
091713	12:55	1	whichhand	3	10464	right
091713	12:55	1	f.greesh	1	5906	2
091713	12:55	1	f.dweech	2	2189	3
091713	12:55	1	f.proop	3	8012	3
091713	12:55	1	f.fafe	4	3763	5
091713	12:55	1	f.shroon	5	2018	3
091713	12:55	1	f.gwoop	6	2088	5
091713	12:55	1	f.slood	7	4737	5
091713	12:55	1	f.sloob	8	1787	5
091713	12:55	1	f.kwave	9	3890	6
091713	12:55	1	f.krooth	10	2693	5
091713	12:55	1	f.thope	11	2207	4
091713	12:55	1	f.groche	12	2053	3
091713	12:55	1	f.glooth	13	4536	4
091713	12:55	1	f.treech	14	1866	5
091713	12:55	1	f.thwase	15	4181	5
091713	12:55	1	f.zove	16	3380	7
091713	12:55	1	f.swome	17	5610	5
091713	12:55	1	f.kleeb	18	1313	4
091713	12:55	1	f.deef	19	6969	4
091713	12:55	1	f.dogue	20	2019	6
091713	12:55	1	f.skase	21	2000	5
091713	12:55	1	f.skame	22	7461	6
091713	12:55	1	f.pleer	23	3170	6
091713	12:55	1	f.joshe	24	3338	7
091713	12:55	1	f.sneeve	25	2090	3
091713	12:55	1	f.thoon	26	2893	5
091713	12:55	1	f.kleesh	27	1335	4
091713	12:55	1	f.skome	28	2351	5
091713	12:55	1	f.tweech	29	2775	5
091713	12:55	1	f.sloor	30	1374	4
091713	12:55	1	f.seesh	31	2525	3
091713	12:55	1	f.zoshe	32	4558	5
091713	12:55	1	f.shoge	33	9846	4
091713	12:55	1	f.skeeth	34	2244	4
091713	12:55	1	f.kweem	35	1360	5
091713	12:55	1	f.swobe	36	1487	4
091713	12:55	1	f.zache	37	2865	5
091713	12:55	1	f.proke	38	2877	6
091713	12:55	1	f.sneed	39	2431	4
091713	12:55	1	f.noshe	40	2308	4
091713	12:55	1	f.shrague	41	2222	5
091713	12:55	1	f.sneeg	42	1307	4
091713	12:55	1	f.throle	43	1516	4
091713	12:55	1	f.shabe	44	2309	5
091713	12:55	1	f.moshe	45	3118	6
091713	12:55	1	f.kwade	46	1384	4
091713	12:55	1	f.vage	47	1830	5
091713	12:55	1	f.thweet	48	2499	5
091713	12:55	1	f.stoob	49	1069	4
091713	12:55	1	f.froop	50	1223	4
091713	12:55	1	f.krathe	51	1684	5
091713	12:55	1	f.foof	52	2438	5
091713	12:55	1	f.snoche	53	5507	4
091713	12:55	1	f.preel	54	3590	5
091713	12:55	1	f.dwafe	55	1829	4
091713	12:55	1	f.treem	56	3473	5
091713	12:55	1	f.froof	57	1589	6
091713	12:55	1	f.zeege	58	1714	5
091713	12:55	1	f.smape	59	2316	2
091713	12:55	1	f.prool	60	3021	4
091713	12:55	1	r.stagnant	1	16963	3
091713	12:55	1	r.employment	2	4031	7
091713	12:55	1	r.adventure	3	3253	8
091713	12:55	1	r.pain	4	4385	2
091713	12:55	1	r.promotion	5	2176	9
091713	12:55	1	r.bored	6	3774	1
091713	12:55	1	r.advantage	7	1974	7
091713	12:55	1	r.penis	8	3069	5
091713	12:55	1	r.office	9	6664	3
091713	12:55	1	r.terrified	10	2029	2
091713	12:55	1	r.hostile	11	1818	1
091713	12:55	1	r.graduate	12	2399	8
091713	12:55	1	r.flirt	13	2052	9
091713	12:55	1	r.masterful	14	3584	9
091713	12:55	1	r.guillotine	15	3646	2
091713	12:55	1	r.narcotic	16	3516	3
091713	12:55	1	r.cellar	17	3061	4
091713	12:55	1	r.coarse	18	6160	5
091713	12:55	1	r.thoughtful	19	1457	6
091713	12:55	1	r.frog	20	4341	5
091713	12:55	1	r.abduction	21	2022	2
091713	12:55	1	r.legend	22	1971	8
091713	12:55	1	r.embattled	23	3970	7
091713	12:55	1	r.memory	24	2434	7
091713	12:55	1	r.rape	25	1526	1
091713	12:55	1	r.reward	26	2726	8
091713	12:55	1	r.massacre	27	2823	1
091713	12:55	1	r.quick	28	1957	7
091713	12:55	1	r.gun	29	1692	4
091713	12:55	1	r.shamed	30	3606	2
091713	12:55	1	r.demon	31	2005	2
091713	12:55	1	r.suicide	32	1475	1
091713	12:55	1	r.obnoxious	33	2269	1
091713	12:55	1	r.hate	34	2016	3
091713	12:55	1	r.loser	35	1446	1
091713	12:55	1	r.opinion	36	2113	5
091713	12:55	1	r.debt	37	2626	2
091713	12:55	1	r.music	38	1943	7
091713	12:55	1	r.nervous	39	2855	2
091713	12:55	1	r.blue	40	4219	4
091713	12:55	1	r.leader	41	2800	8
091713	12:55	1	r.lost	42	1334	2
091713	12:55	1	r.bloody	43	2031	2
091713	12:55	1	r.innocent	44	1923	6
091713	12:55	1	r.failure	45	1972	1
091713	12:55	1	r.luxury	46	5659	7
091713	12:55	1	r.tragedy	47	1535	2
091713	12:55	1	r.slush	48	2872	4
091713	12:55	1	r.garter	49	4483	5
091713	12:55	1	r.untroubled	50	2310	9
091713	12:55	1	r.jolly	51	1704	9
091713	12:55	1	r.enraged	52	2985	1
091713	12:55	1	r.delayed	53	2376	2
091713	12:55	1	r.violin	54	4870	3
091713	12:55	1	r.comfort	55	2171	8
091713	12:55	1	r.orgasm	56	1930	9
091713	12:55	1	r.humble	57	2458	9
091713	12:55	1	r.victim	58	1726	1
091713	12:55	1	r.useful	59	4678	8
091713	12:55	1	r.errand	60	1818	3
091713	12:55	1	howtype	1	22005	6
091713	14:20	1	speed	1	3655	39
091713	14:20	1	error	2	2108	94
091713	14:20	1	whichhand	3	7758	Right
091713	14:20	1	f.bave	1	5854	6
091713	14:20	1	f.groshe	2	4651	3
091713	14:20	1	f.krooge	3	3048	8
091713	14:20	1	f.shreeb	4	2876	4
091713	14:20	1	f.gloche	5	1967	2
091713	14:20	1	f.sweel	6	1581	7
091713	14:20	1	f.shoche	7	4252	5
091713	14:20	1	f.bleeve	8	1985	8
091713	14:20	1	f.grore	9	2991	3
091713	14:20	1	f.dwade	10	2501	9
091713	14:20	1	f.broor	11	2439	3
091713	14:20	1	f.throod	12	3532	4
091713	14:20	1	f.sleel	13	3213	6
091713	14:20	1	f.zoche	14	3746	6
091713	14:20	1	f.joosh	15	2131	4
091713	14:20	1	f.glale	16	2787	3
091713	14:20	1	f.dwoon	17	1522	4
091713	14:20	1	f.krafe	18	1771	7
091713	14:20	1	f.kwache	19	1994	8
091713	14:20	1	f.tweeth	20	1520	6
091713	14:20	1	f.thove	21	2608	5
091713	14:20	1	f.poom	22	2734	7
091713	14:20	1	f.thade	23	1839	5
091713	14:20	1	f.trake	24	3339	6
091713	14:20	1	f.flafe	25	2452	7
091713	14:20	1	f.smaze	26	2248	2
091713	14:20	1	f.grache	27	1828	2
091713	14:20	1	f.spage	28	2208	3
091713	14:20	1	f.kleesh	29	5118	3
091713	14:20	1	f.gween	30	2680	4
091713	14:20	1	f.kreer	31	1099	4
091713	14:20	1	f.snome	32	1596	5
091713	14:20	1	f.sneese	33	2882	7
091713	14:20	1	f.shreech	34	4709	4
091713	14:20	1	f.fope	35	1822	8
091713	14:20	1	f.krabe	36	2196	7
091713	14:20	1	f.fafe	37	1482	7
091713	14:20	1	f.chade	38	2076	7
091713	14:20	1	f.sheege	39	1470	5
091713	14:20	1	f.floob	40	3033	4
091713	14:20	1	f.gwood	41	2414	6
091713	14:20	1	f.pleeth	42	1979	4
091713	14:20	1	f.drofe	43	3585	5
091713	14:20	1	f.twague	44	4960	6
091713	14:20	1	f.kleep	45	2664	7
091713	14:20	1	f.breeg	46	1788	4
091713	14:20	1	f.thool	47	4186	6
091713	14:20	1	f.broog	48	2065	4
091713	14:20	1	f.dreese	49	5140	4
091713	14:20	1	f.dwoom	50	2550	4
091713	14:20	1	f.kweeb	51	1470	6
091713	14:20	1	f.spashe	52	1897	7
091713	14:20	1	f.toshe	53	2026	6
091713	14:20	1	f.zore	54	1423	8
091713	14:20	1	f.floop	55	2564	8
091713	14:20	1	f.nafe	56	3323	7
091713	14:20	1	f.sneech	57	2516	4
091713	14:20	1	f.drothe	58	5462	4
091713	14:20	1	f.chague	59	2178	5
091713	14:20	1	f.kreege	60	3392	4
091713	14:20	1	r.horse	1	2802	6
091713	14:20	1	r.killer	2	3368	2
091713	14:20	1	r.gymnast	3	2111	7
091713	14:20	1	r.bathroom	4	1440	4
091713	14:20	1	r.ankle	5	1668	5
091713	14:20	1	r.mighty	6	1463	8
091713	14:20	1	r.leprosy	7	1753	2
091713	14:20	1	r.noose	8	2010	1
091713	14:20	1	r.inferior	9	4647	3
091713	14:20	1	r.voyage	10	2348	8
091713	14:20	1	r.hope	11	1347	9
091713	14:20	1	r.controlling	12	1379	4
091713	14:20	1	r.obscene	13	2489	4
091713	14:20	1	r.divorce	14	1540	1
091713	14:20	1	r.bland	15	2859	5
091713	14:20	1	r.decompose	16	1551	5
091713	14:20	1	r.passage	17	1927	7
091713	14:20	1	r.surgery	18	2319	6
091713	14:20	1	r.bus	19	3425	5
091713	14:20	1	r.suffocate	20	1542	1
091713	14:20	1	r.cuisine	21	1622	7
091713	14:20	1	r.disappoint	22	2059	3
091713	14:20	1	r.pinch	23	1615	4
091713	14:20	1	r.spanking	24	2667	3
091713	14:20	1	r.erotic	25	1822	4
091713	14:20	1	r.phase	26	1468	5
091713	14:20	1	r.museum	27	1134	6
091713	14:20	1	r.fearful	28	1870	4
091713	14:20	1	r.bouquet	29	1946	6
091713	14:20	1	r.gift	30	1377	8
091713	14:20	1	r.theory	31	2055	5
091713	14:20	1	r.sexy	32	1355	6
091713	14:20	1	r.beast	33	2243	4
091713	14:20	1	r.inhabitant	34	2615	5
091713	14:20	1	r.maggot	35	1700	3
091713	14:20	1	r.execution	36	1894	1
091713	14:20	1	r.lawsuit	37	1439	3
091713	14:20	1	r.invest	38	2388	6
091713	14:20	1	r.vacation	39	1242	8
091713	14:20	1	r.yellow	40	2118	9
091713	14:20	1	r.rescue	41	1495	6
091713	14:20	1	r.incentive	42	1521	7
091713	14:20	1	r.wink	43	1897	6
091713	14:20	1	r.intellect	44	2099	9
091713	14:20	1	r.machine	45	1733	5
091713	14:20	1	r.tank	46	1686	4
091713	14:20	1	r.rainbow	47	1528	7
091713	14:20	1	r.hamburger	48	1696	6
091713	14:20	1	r.tense	49	1578	4
091713	14:20	1	r.board	50	3472	5
091713	14:20	1	r.fatigued	51	1572	3
091713	14:20	1	r.cell	52	2186	2
091713	14:20	1	r.cane	53	1929	3
091713	14:20	1	r.limber	54	2161	5
091713	14:20	1	r.louse	55	2536	5
091713	14:20	1	r.disaster	56	2657	3
091713	14:20	1	r.christmas	57	3005	9
091713	14:20	1	r.horror	58	1891	3
091713	14:20	1	r.art	59	1462	6
091713	14:20	1	r.obnoxious	60	4080	5
091713	14:20	1	howtype	1	6874	4
091713	15:25	1	speed	1	2999	51
091713	15:25	1	error	2	2974	98
091713	15:25	1	whichhand	3	8214	right
091713	15:25	1	f.thwashe	1	4875	1
091713	15:25	1	f.klope	2	5150	5
091713	15:25	1	f.jate	3	5471	9
091713	15:25	1	f.choob	4	5955	7
091713	15:25	1	f.throthe	5	5588	4
091713	15:25	1	f.zeed	6	3812	5
091713	15:25	1	f.dwose	7	5570	2
091713	15:25	1	f.mooth	8	3738	7
091713	15:25	1	f.chage	9	4819	3
091713	15:25	1	f.dreege	10	4473	1
091713	15:25	1	f.plache	11	4309	2
091713	15:25	1	f.dwoop	12	2991	4
091713	15:25	1	f.dweep	13	2430	4
091713	15:25	1	f.shrore	14	2818	1
091713	15:25	1	f.deeg	15	2855	6
091713	15:25	1	f.pleech	16	3476	7
091713	15:25	1	f.moosh	17	2543	9
091713	15:25	1	f.foog	18	3014	5
091713	15:25	1	f.thwooge	19	4452	1
091713	15:25	1	f.blale	20	5640	5
091713	15:25	1	f.greesh	21	3054	5
091713	15:25	1	f.bleeb	22	1802	5
091713	15:25	1	f.yooge	23	3312	4
091713	15:25	1	f.twofe	24	1649	1
091713	15:25	1	f.blooge	25	2061	5
091713	15:25	1	f.zeek	26	1832	9
091713	15:25	1	f.sobe	27	2156	9
091713	15:25	1	f.skame	28	3284	7
091713	15:25	1	f.jeeg	29	3935	4
091713	15:25	1	f.grabe	30	2520	8
091713	15:25	1	f.shrove	31	2169	5
091713	15:25	1	f.swaze	32	2272	4
091713	15:25	1	f.thove	33	1852	5
091713	15:25	1	f.gwooze	34	7991	6
091713	15:25	1	f.slogue	35	2311	1
091713	15:25	1	f.treem	36	2040	5
091713	15:25	1	f.skoof	37	1789	5
091713	15:25	1	f.sloof	38	1891	5
091713	15:25	1	f.poog	39	4301	4
091713	15:25	1	f.sneeve	40	1848	4
091713	15:25	1	f.glage	41	2324	3
091713	15:25	1	f.toge	42	2893	3
091713	15:25	1	f.vabe	43	2911	8
091713	15:25	1	f.slage	44	2776	5
091713	15:25	1	f.veed	45	2343	9
091713	15:25	1	f.sneese	46	3039	6
091713	15:25	1	f.chale	47	1740	5
091713	15:25	1	f.kloshe	48	1716	1
091713	15:25	1	f.gwoor	49	1244	1
091713	15:25	1	f.twole	50	3096	3
091713	15:25	1	f.vood	51	1995	8
091713	15:25	1	f.gweek	52	2384	3
091713	15:25	1	f.droot	53	1727	5
091713	15:25	1	f.shreel	54	3927	5
091713	15:25	1	f.freeg	55	2256	4
091713	15:25	1	f.dreeze	56	7556	5
091713	15:25	1	f.freep	57	2366	7
091713	15:25	1	f.vashe	58	1845	1
091713	15:25	1	f.leech	59	3169	9
091713	15:25	1	f.gwool	60	2048	3
091713	15:25	1	r.lion	1	4692	9
091713	15:25	1	r.reverent	2	2878	4
091713	15:25	1	r.dazzle	3	2121	9
091713	15:25	1	r.warmth	4	1266	9
091713	15:25	1	r.needle	5	1557	9
091713	15:25	1	r.snake	6	1381	9
091713	15:25	1	r.heroin	7	13562	1
091713	15:25	1	r.theory	8	2654	5
091713	15:25	1	r.medicine	9	2514	9
091713	15:25	1	r.melody	10	1899	9
091713	15:25	1	r.circle	11	1557	5
091713	15:25	1	r.bland	12	1588	5
091713	15:25	1	r.youth	13	1626	9
091713	15:25	1	r.comfort	14	1383	9
091713	15:25	1	r.termite	15	1901	1
091713	15:25	1	r.humane	16	1711	5
091713	15:25	1	r.radiator	17	2928	5
091713	15:25	1	r.event	18	1904	5
091713	15:25	1	r.tomb	19	2506	3
091713	15:25	1	r.flirt	20	1828	9
091713	15:25	1	r.tree	21	1248	5
091713	15:25	1	r.patient	22	1444	5
091713	15:25	1	r.cork	23	1663	5
091713	15:25	1	r.wealthy	24	1618	9
091713	15:25	1	r.sunset	25	1815	8
091713	15:25	1	r.mail	26	1180	5
091713	15:25	1	r.rabbit	27	1370	5
091713	15:25	1	r.home	28	1241	9
091713	15:25	1	r.lake	29	1501	9
091713	15:25	1	r.cut	30	1423	1
091713	15:25	1	r.prairie	31	2036	7
091713	15:25	1	r.wish	32	2328	6
091713	15:25	1	r.twilight	33	1409	5
091713	15:25	1	r.honor	34	1430	9
091713	15:25	1	r.baby	35	1475	9
091713	15:25	1	r.punishment	36	1693	1
091713	15:25	1	r.sick	37	1295	1
091713	15:25	1	r.pus	38	1368	1
091713	15:25	1	r.beauty	39	1159	9
091713	15:25	1	r.shadow	40	1886	5
091713	15:25	1	r.activate	41	1585	5
091713	15:25	1	r.defeated	42	1807	1
091713	15:25	1	r.game	43	2612	7
091713	15:25	1	r.guilty	44	1218	1
091713	15:25	1	r.dead	45	1391	1
091713	15:25	1	r.industry	46	1149	5
091713	15:25	1	r.god	47	2068	9
091713	15:25	1	r.fungus	48	1103	1
091713	15:25	1	r.boy	49	2441	8
091713	15:25	1	r.memory	50	1381	5
091713	15:25	1	r.rescue	51	6667	7
091713	15:25	1	r.foam	52	1328	5
091713	15:25	1	r.ketchup	53	3168	4
091713	15:25	1	r.cheer	54	1608	9
091713	15:25	1	r.glamour	55	1133	9
091713	15:25	1	r.errand	56	1965	4
091713	15:25	1	r.man	57	1852	9
091713	15:25	1	r.loyal	58	2496	9
091713	15:25	1	r.volcano	59	1906	2
091713	15:25	1	r.lesbian	60	2124	1
091713	15:25	1	howtype	1	11859	6
091713	16:08	1	speed	1	3757	42
091713	16:08	1	error	2	2312	100
091713	16:08	1	whichhand	3	7138	Right
091713	16:08	1	f.swale	1	4746	2
091713	16:08	1	f.thashe	2	2931	2
091713	16:08	1	f.fleeg	3	2307	2
091713	16:08	1	f.gooch	4	1893	1
091713	16:08	1	f.neef	5	1735	2
091713	16:08	1	f.boosh	6	2431	2
091713	16:08	1	f.sloor	7	1620	2
091713	16:08	1	f.gloosh	8	1577	2
091713	16:08	1	f.ploosh	9	1583	2
091713	16:08	1	f.tweeg	10	1402	2
091713	16:08	1	f.freep	11	1715	2
091713	16:08	1	f.yate	12	1612	3
091713	16:08	1	f.skoosh	13	1521	2
091713	16:08	1	f.teesh	14	3025	4
091713	16:08	1	f.bave	15	1990	4
091713	16:08	1	f.kroof	16	1365	2
091713	16:08	1	f.smeeze	17	1268	2
091713	16:08	1	f.snathe	18	1533	2
091713	16:08	1	f.mobe	19	1359	3
091713	16:08	1	f.glase	20	2174	4
091713	16:08	1	f.plool	21	1781	5
091713	16:08	1	f.krore	22	2540	4
091713	16:08	1	f.kweeze	23	1340	2
091713	16:08	1	f.swothe	24	2596	3
091713	16:08	1	f.theeb	25	2482	5
091713	16:08	1	f.kwabe	26	1429	5
091713	16:08	1	f.plashe	27	1265	4
091713	16:08	1	f.shrage	28	1500	4
091713	16:08	1	f.frooch	29	1622	2
091713	16:08	1	f.theen	30	1299	5
091713	16:08	1	f.shreef	31	1148	2
091713	16:08	1	f.plore	32	1356	5
091713	16:08	1	f.sleech	33	1195	2
091713	16:08	1	f.glooth	34	1256	2
091713	16:08	1	f.twache	35	1260	2
091713	16:08	1	f.smoosh	36	2087	4
091713	16:08	1	f.thool	37	1313	5
091713	16:08	1	f.gweem	38	1098	3
091713	16:08	1	f.smome	39	1491	5
091713	16:08	1	f.thweeze	40	1150	2
091713	16:08	1	f.spave	41	1253	5
091713	16:08	1	f.stooth	42	1441	4
091713	16:08	1	f.zashe	43	2069	6
091713	16:08	1	f.stobe	44	1272	4
091713	16:08	1	f.stoche	45	1427	5
091713	16:08	1	f.kreeth	46	1183	4
091713	16:08	1	f.gache	47	1509	4
091713	16:08	1	f.throfe	48	1767	5
091713	16:08	1	f.thweeb	49	1350	2
091713	16:08	1	f.gwofe	50	1133	4
091713	16:08	1	f.zore	51	1645	7
091713	16:08	1	f.drase	52	2088	7
091713	16:08	1	f.thane	53	1899	6
091713	16:08	1	f.yeeg	54	1301	3
091713	16:08	1	f.dague	55	1430	5
091713	16:08	1	f.soog	56	1714	4
091713	16:08	1	f.bleeth	57	2588	3
091713	16:08	1	f.dwate	58	1458	4
091713	16:08	1	f.gleel	59	1141	3
091713	16:08	1	f.gwase	60	1669	3
091713	16:08	1	r.hardship	1	4047	3
091713	16:08	1	r.employment	2	4227	7
091713	16:08	1	r.cabinet	3	1736	5
091713	16:08	1	r.confident	4	1713	8
091713	16:08	1	r.menace	5	1346	2
091713	16:08	1	r.grateful	6	1202	8
091713	16:08	1	r.trust	7	1135	8
091713	16:08	1	r.scar	8	1303	2
091713	16:08	1	r.stupid	9	1265	2
091713	16:08	1	r.burdened	10	1347	2
091713	16:08	1	r.queen	11	2747	6
091713	16:08	1	r.rancid	12	1099	2
091713	16:08	1	r.slaughter	13	1499	1
091713	16:08	1	r.ship	14	1341	5
091713	16:08	1	r.cheer	15	1382	8
091713	16:08	1	r.astonished	16	1787	8
091713	16:08	1	r.item	17	1153	5
091713	16:08	1	r.agreement	18	1432	6
091713	16:08	1	r.bees	19	1482	2
091713	16:08	1	r.paradise	20	1198	9
091713	16:08	1	r.lawn	21	1340	6
091713	16:08	1	r.door	22	1196	5
091713	16:08	1	r.gold	23	1354	8
091713	16:08	1	r.immoral	24	2218	2
091713	16:08	1	r.alien	25	2535	5
091713	16:08	1	r.violin	26	1455	5
091713	16:08	1	r.obesity	27	1915	2
091713	16:08	1	r.alert	28	3140	5
091713	16:08	1	r.greed	29	2205	4
091713	16:08	1	r.gymnast	30	2370	5
091713	16:08	1	r.hurricane	31	1562	2
091713	16:08	1	r.virtue	32	1585	7
091713	16:08	1	r.neurotic	33	1894	2
091713	16:08	1	r.garbage	34	1415	2
091713	16:08	1	r.scandal	35	1558	3
091713	16:08	1	r.hell	36	1445	2
091713	16:08	1	r.pest	37	1121	2
091713	16:08	1	r.elegant	38	1409	7
091713	16:08	1	r.success	39	1502	8
091713	16:08	1	r.spider	40	1199	2
091713	16:08	1	r.warmth	41	1301	7
091713	16:08	1	r.iron	42	1127	5
091713	16:08	1	r.passion	43	1279	7
091713	16:08	1	r.table	44	1193	5
091713	16:08	1	r.garment	45	1502	5
091713	16:08	1	r.prestige	46	1176	7
091713	16:08	1	r.star	47	1295	5
091713	16:08	1	r.egg	48	1104	5
091713	16:08	1	r.butter	49	970	5
091713	16:08	1	r.tree	50	1064	5
091713	16:08	1	r.improve	51	1283	7
091713	16:08	1	r.thoughtful	52	1317	8
091713	16:08	1	r.pasta	53	1205	5
091713	16:08	1	r.sin	54	1444	2
091713	16:08	1	r.loved	55	1103	7
091713	16:08	1	r.cemetery	56	1337	2
091713	16:08	1	r.radiator	57	1848	5
091713	16:08	1	r.infant	58	2300	7
091713	16:08	1	r.contempt	59	1846	3
091713	16:08	1	r.breeze	60	1226	6
091713	16:08	1	howtype	1	13277	5
091713	16:29	1	speed	1	2765	50
091713	16:29	1	error	2	2165	94
091713	16:29	1	whichhand	3	6269	right
091713	16:29	1	r.bless	1	6385	9
091713	16:29	1	r.measles	2	5177	2
091713	16:29	1	r.slave	3	1857	1
091713	16:29	1	r.burial	4	2557	3
091713	16:29	1	r.neglect	5	1555	1
091713	16:29	1	r.power	6	1812	5
091713	16:29	1	r.horror	7	1465	1
091713	16:29	1	r.clouds	8	2956	8
091713	16:29	1	r.concentrate	9	2020	8
091713	16:29	1	r.theory	10	5761	6
091713	16:29	1	r.option	11	4809	9
091713	16:29	1	r.joy	12	1256	9
091713	16:29	1	r.computer	13	2739	7
091713	16:29	1	r.fantasy	14	1812	9
091713	16:29	1	r.key	15	1657	9
091713	16:29	1	r.vehicle	16	1892	8
091713	16:29	1	r.restaurant	17	2454	5
091713	16:29	1	r.orgasm	18	3674	2
091713	16:29	1	r.revolt	19	2342	1
091713	16:29	1	r.appliance	20	1903	5
091713	16:29	1	r.face	21	3080	6
091713	16:29	1	r.bathroom	22	3675	4
091713	16:29	1	r.neurotic	23	6846	3
091713	16:29	1	r.avalanche	24	5596	3
091713	16:29	1	r.slaughter	25	1779	1
091713	16:29	1	r.sentiment	26	3705	5
091713	16:29	1	r.cork	27	2651	5
091713	16:29	1	r.book	28	3287	6
091713	16:29	1	r.excellence	29	1834	8
091713	16:29	1	r.liberty	30	1910	8
091713	16:29	1	r.masterful	31	1464	9
091713	16:29	1	r.trust	32	962	9
091713	16:29	1	r.sin	33	2369	2
091713	16:29	1	r.vigorous	34	2456	5
091713	16:29	1	r.bus	35	2139	5
091713	16:29	1	r.stove	36	909	5
091713	16:29	1	r.annoy	37	4030	3
091713	16:29	1	r.corrupt	38	1563	2
091713	16:29	1	r.intruder	39	2218	2
091713	16:29	1	r.blond	40	3351	3
091713	16:29	1	r.wish	41	1599	8
091713	16:29	1	r.pest	42	1949	3
091713	16:29	1	r.pollute	43	3285	3
091713	16:29	1	r.paradise	44	1568	8
091713	16:29	1	r.abduction	45	4046	2
091713	16:29	1	r.distressed	46	1491	1
091713	16:29	1	r.fight	47	1229	1
091713	16:29	1	r.aroused	48	1257	2
091713	16:29	1	r.mighty	49	1813	6
091713	16:29	1	r.gossip	50	2906	4
091713	16:29	1	r.rat	51	1332	1
091713	16:29	1	r.rabbit	52	1852	7
091713	16:29	1	r.muffin	53	1856	8
091713	16:29	1	r.bride	54	1427	9
091713	16:29	1	r.dollar	55	1408	5
091713	16:29	1	r.red	56	1373	9
091713	16:29	1	r.angry	57	1516	3
091713	16:29	1	r.soothe	58	2693	6
091713	16:29	1	r.waste	59	1775	3
091713	16:29	1	r.vision	60	1774	5
091713	16:29	1	f.dwache	1	5465	3
091713	16:29	1	f.ploosh	2	2198	3
091713	16:29	1	f.twoosh	3	2732	4
091713	16:29	1	f.noge	4	2068	3
091713	16:29	1	f.gwose	5	2927	4
091713	16:29	1	f.blave	6	2016	6
091713	16:29	1	f.zathe	7	1981	5
091713	16:29	1	f.dreef	8	2484	4
091713	16:29	1	f.dwoze	9	2126	5
091713	16:29	1	f.stathe	10	2254	6
091713	16:29	1	f.seesh	11	1290	6
091713	16:29	1	f.blathe	12	1645	5
091713	16:29	1	f.thwoor	13	2864	5
091713	16:29	1	f.zafe	14	2164	6
091713	16:29	1	f.kroog	15	3579	6
091713	16:29	1	f.gweet	16	1641	6
091713	16:29	1	f.dwoshe	17	3630	6
091713	16:29	1	f.proosh	18	1618	4
091713	16:29	1	f.pleek	19	2047	5
091713	16:29	1	f.gloshe	20	4228	5
091713	16:29	1	f.veek	21	2017	4
091713	16:29	1	f.gweese	22	2326	3
091713	16:29	1	f.swool	23	1878	5
091713	16:29	1	f.sleech	24	3361	4
091713	16:29	1	f.gweeth	25	2800	6
091713	16:29	1	f.looch	26	2390	6
091713	16:29	1	f.tware	27	2149	5
091713	16:29	1	f.broob	28	2453	4
091713	16:29	1	f.thague	29	1808	4
091713	16:29	1	f.pleeve	30	2614	5
091713	16:29	1	f.gwooch	31	1867	6
091713	16:29	1	f.snobe	32	4430	5
091713	16:29	1	f.jome	33	1732	6
091713	16:29	1	f.drofe	34	2564	3
091713	16:29	1	f.brabe	35	2539	6
091713	16:29	1	f.drobe	36	2204	4
091713	16:29	1	f.dabe	37	2154	6
091713	16:29	1	f.jeet	38	2105	5
091713	16:29	1	f.smeen	39	1387	5
091713	16:29	1	f.frabe	40	2209	6
091713	16:29	1	f.thwooge	41	4310	4
091713	16:29	1	f.drathe	42	1752	6
091713	16:29	1	f.thobe	43	1168	4
091713	16:29	1	f.tweeg	44	1743	5
091713	16:29	1	f.dwore	45	2278	4
091713	16:29	1	f.frothe	46	2288	4
091713	16:29	1	f.thwage	47	2195	4
091713	16:29	1	f.gleese	48	4017	6
091713	16:29	1	f.kwode	49	1590	6
091713	16:29	1	f.droot	50	1093	4
091713	16:29	1	f.pleef	51	1110	5
091713	16:29	1	f.feeb	52	2767	4
091713	16:29	1	f.yobe	53	1806	4
091713	16:29	1	f.sheese	54	3531	4
091713	16:29	1	f.glooge	55	3237	6
091713	16:29	1	f.shache	56	2234	3
091713	16:29	1	f.frache	57	1749	4
091713	16:29	1	f.spogue	58	1158	6
091713	16:29	1	f.twoge	59	1573	4
091713	16:29	1	f.drafe	60	1316	6
091713	16:29	1	howtype	1	27443	3
091813	13:28	55	speed	1	10217	35
091813	13:28	55	error	2	2714	97
091813	13:28	55	whichhand	3	29343	Right 
091813	13:28	55	r.butterfly	1	20197	9
091813	13:28	55	r.cold	2	6539	5
091813	13:28	55	r.spouse	3	5076	8
091813	13:28	55	r.butter	4	4856	8
091813	13:28	55	r.wish	5	5533	7
091813	13:28	55	r.easy	6	4118	8
091813	13:28	55	r.jug	7	4785	6
091813	13:28	55	r.imagine	8	4000	7
091813	13:28	55	r.adult	9	4486	8
091813	13:28	55	r.sad	10	5306	4
091813	13:28	55	r.pie	11	3045	5
091813	13:28	55	r.tamper	12	4936	3
091813	13:28	55	r.alert	13	3218	6
091813	13:28	55	r.violin	14	4151	6
091813	13:28	55	r.banner	15	6016	5
091813	13:28	55	r.addict	16	8534	5
091813	13:28	55	r.blubber	17	4233	8
091813	13:28	55	r.heart	18	4901	7
091813	13:28	55	r.odd	19	6096	6
091813	13:28	55	r.building	20	2581	5
091813	13:28	55	r.loved	21	4627	4
091813	13:28	55	r.fault	22	5136	4
091813	13:28	55	r.alley	23	3065	5
091813	13:28	55	r.kindness	24	4269	7
091813	13:28	55	r.puppy	25	2569	9
091813	13:28	55	r.seat	26	2848	7
091813	13:28	55	r.impotent	27	5787	5
091813	13:28	55	r.war	28	5587	4
091813	13:28	55	r.decorate	29	4459	6
091813	13:28	55	r.hand	30	2087	5
091813	13:28	55	r.social	31	4825	5
091813	13:28	55	r.snake	32	2502	4
091813	13:28	55	r.ambition	33	3433	6
091813	13:28	55	r.detached	34	3342	4
091813	13:28	55	r.locker	35	6389	6
091813	13:28	55	r.maggot	36	3390	3
091813	13:28	55	r.engine	37	1700	5
091813	13:28	55	r.moment	38	2022	5
091813	13:28	55	r.teacher	39	1803	6
091813	13:28	55	r.luscious	40	2993	7
091813	13:28	55	r.killer	41	3342	5
091813	13:28	55	r.perfume	42	2479	8
091813	13:28	55	r.mold	43	3281	4
091813	13:28	55	r.circus	44	2205	6
091813	13:28	55	r.masturbate	45	2675	2
091813	13:28	55	r.method	46	3494	5
091813	13:28	55	r.green	47	2320	6
091813	13:28	55	r.despairing	48	3361	5
091813	13:28	55	r.cockroach	49	2737	3
091813	13:28	55	r.mind	50	3233	5
091813	13:28	55	r.volcano	51	4990	5
091813	13:28	55	r.passage	52	3246	6
091813	13:28	55	r.fur	53	4417	7
091813	13:28	55	r.storm	54	2465	8
091813	13:28	55	r.magical	55	2987	9
091813	13:28	55	r.dream	56	3738	8
091813	13:28	55	r.crime	57	3299	4
091813	13:28	55	r.engaged	58	3133	8
091813	13:28	55	r.humiliate	59	3998	5
091813	13:28	55	r.secure	60	6149	5
091813	13:28	55	f.dwake	1	6533	4
091813	13:28	55	f.vooge	2	5990	4
091813	13:28	55	f.theed	3	4294	5
091813	13:28	55	f.thrale	4	3425	5
091813	13:28	55	f.plave	5	4926	4
091813	13:28	55	f.thrope	6	4848	6
091813	13:28	55	f.shrafe	7	4245	6
091813	13:28	55	f.kwoche	8	4033	4
091813	13:28	55	f.gweet	9	3870	4
091813	13:28	55	f.flogue	10	4977	5
091813	13:28	55	f.gwoke	11	3480	6
091813	13:28	55	f.kweed	12	6212	4
091813	13:28	55	f.bloshe	13	4962	5
091813	13:28	55	f.spathe	14	3226	6
091813	13:28	55	f.sleesh	15	3263	6
091813	13:28	55	f.sneeve	16	4946	6
091813	13:28	55	f.drothe	17	2979	6
091813	13:28	55	f.thwale	18	2378	6
091813	13:28	55	f.grague	19	3937	5
091813	13:28	55	f.kleed	20	2953	4
091813	13:28	55	f.frothe	21	6362	6
091813	13:28	55	f.sloor	22	2569	6
091813	13:28	55	f.twoop	23	3626	7
091813	13:28	55	f.swaze	24	3118	6
091813	13:28	55	f.trobe	25	3416	4
091813	13:28	55	f.floosh	26	3317	7
091813	13:28	55	f.speem	27	3551	6
091813	13:28	55	f.glashe	28	2039	5
091813	13:28	55	f.shrare	29	4980	4
091813	13:28	55	f.droge	30	4523	5
091813	13:28	55	f.preep	31	2885	6
091813	13:28	55	f.throshe	32	3072	5
091813	13:28	55	f.tofe	33	2627	6
091813	13:28	55	f.swool	34	2600	5
091813	13:28	55	f.ploosh	35	3006	8
091813	13:28	55	f.tweep	36	2412	6
091813	13:28	55	f.dague	37	2545	4
091813	13:28	55	f.blothe	38	2752	5
091813	13:28	55	f.fobe	39	2521	6
091813	13:28	55	f.lashe	40	5050	7
091813	13:28	55	f.thwose	41	4774	5
091813	13:28	55	f.kweech	42	5181	4
091813	13:28	55	f.skeege	43	4686	4
091813	13:28	55	f.greeb	44	4281	5
091813	13:28	55	f.twoog	45	3413	4
091813	13:28	55	f.pleeve	46	6306	5
091813	13:28	55	f.koob	47	2621	6
091813	13:28	55	f.smooze	48	2243	7
091813	13:28	55	f.steeth	49	4550	5
091813	13:28	55	f.thwote	50	6694	6
091813	13:28	55	f.flafe	51	5738	6
091813	13:28	55	f.jeeb	52	2500	7
091813	13:28	55	f.drague	53	2957	4
091813	13:28	55	f.twose	54	3839	7
091813	13:28	55	f.gleek	55	3594	6
091813	13:28	55	f.thwame	56	5769	5
091813	13:28	55	f.fofe	57	4649	5
091813	13:28	55	f.stoob	58	1630	6
091813	13:28	55	f.veeb	59	2082	5
091813	13:28	55	f.shase	60	4957	6
091813	13:28	55	howtype	1	9436	5
091813	14:12	4	speed	1	5216	37
091813	14:12	4	error	2	3537	97
091813	14:12	4	whichhand	3	8674	right
091813	14:12	4	r.thrill	1	11819	7
091813	14:12	4	r.deceit	2	14787	8
091813	14:12	4	r.defiant	3	3470	8
091813	14:12	4	r.method	4	1322	4
091813	14:12	4	r.valentine	5	2051	8
091813	14:12	4	r.honey	6	2614	6
091813	14:12	4	r.vanity	7	1748	8
091813	14:12	4	r.nightmare	8	1707	8
091813	14:12	4	r.kindness	9	1989	6
091813	14:12	4	r.moral	10	2731	5
091813	14:12	4	r.gun	11	2124	5
091813	14:12	4	r.stress	12	1925	4
091813	14:12	4	r.dawn	13	1525	7
091813	14:12	4	r.jolly	14	1342	6
091813	14:12	4	r.cheer	15	1767	5
091813	14:12	4	r.inspire	16	2390	7
091813	14:12	4	r.decorate	17	1260	7
091813	14:12	4	r.disaster	18	1559	7
091813	14:12	4	r.beautiful	19	1910	8
091813	14:12	4	r.plane	20	2047	4
091813	14:12	4	r.sinful	21	1571	7
091813	14:12	4	r.trauma	22	1546	8
091813	14:12	4	r.poison	23	1522	8
091813	14:12	4	r.chair	24	2051	4
091813	14:12	4	r.mad	25	2407	5
091813	14:12	4	r.busybody	26	1804	8
091813	14:12	4	r.party	27	1794	4
091813	14:12	4	r.sunset	28	2168	9
091813	14:12	4	r.bathtub	29	1559	5
091813	14:12	4	r.interest	30	2551	7
091813	14:12	4	r.sunrise	31	1782	9
091813	14:12	4	r.bar	32	1436	5
091813	14:12	4	r.bride	33	2089	5
091813	14:12	4	r.zest	34	1363	8
091813	14:12	4	r.mischief	35	1858	9
091813	14:12	4	r.foul	36	1293	4
091813	14:12	4	r.poetry	37	1591	8
091813	14:12	4	r.scream	38	1646	7
091813	14:12	4	r.virgin	39	1345	5
091813	14:12	4	r.regretful	40	1953	7
091813	14:12	4	r.locker	41	1624	4
091813	14:12	4	r.madman	42	1285	5
091813	14:12	4	r.heroin	43	1432	8
091813	14:12	4	r.kerosene	44	1755	8
091813	14:12	4	r.mucus	45	3139	3
091813	14:12	4	r.hay	46	3180	4
091813	14:12	4	r.easy	47	1555	7
091813	14:12	4	r.pancakes	48	2027	9
091813	14:12	4	r.traitor	49	1615	6
091813	14:12	4	r.fantasy	50	1308	8
091813	14:12	4	r.idea	51	1709	7
091813	14:12	4	r.grin	52	1270	6
091813	14:12	4	r.enraged	53	1865	7
091813	14:12	4	r.girl	54	2748	5
091813	14:12	4	r.rude	55	2260	4
091813	14:12	4	r.scorpion	56	2479	7
091813	14:12	4	r.storm	57	1466	8
091813	14:12	4	r.scum	58	1237	4
091813	14:12	4	r.honor	59	2361	7
091813	14:12	4	r.ache	60	1496	8
091813	14:12	4	f.twashe	1	3862	6
091813	14:12	4	f.yome	2	1514	4
091813	14:12	4	f.kreeg	3	1075	5
091813	14:12	4	f.snashe	4	1510	4
091813	14:12	4	f.smashe	5	1110	4
091813	14:12	4	f.trague	6	1151	7
091813	14:12	4	f.dothe	7	1270	7
091813	14:12	4	f.swabe	8	1329	4
091813	14:12	4	f.smale	9	1298	5
091813	14:12	4	f.trooge	10	1203	6
091813	14:12	4	f.kwape	11	1337	5
091813	14:12	4	f.frathe	12	1281	5
091813	14:12	4	f.gleege	13	1155	5
091813	14:12	4	f.gwose	14	1170	7
091813	14:12	4	f.twool	15	1233	5
091813	14:12	4	f.sloche	16	797	5
091813	14:12	4	f.freef	17	3003	5
091813	14:12	4	f.pleeve	18	1400	5
091813	14:12	4	f.thwashe	19	1278	6
091813	14:12	4	f.stofe	20	1705	6
091813	14:12	4	f.gwooge	21	954	5
091813	14:12	4	f.gware	22	1217	4
091813	14:12	4	f.glase	23	1646	6
091813	14:12	4	f.skooth	24	2058	5
091813	14:12	4	f.shreet	25	2149	4
091813	14:12	4	f.snague	26	1685	7
091813	14:12	4	f.sooch	27	1904	4
091813	14:12	4	f.froob	28	1249	4
091813	14:12	4	f.swooge	29	1469	4
091813	14:12	4	f.gwooch	30	1128	4
091813	14:12	4	f.spome	31	1256	4
091813	14:12	4	f.veed	32	1868	5
091813	14:12	4	f.sache	33	1934	5
091813	14:12	4	f.proche	34	1655	6
091813	14:12	4	f.shreese	35	1514	7
091813	14:12	4	f.gwafe	36	1387	6
091813	14:12	4	f.voke	37	2121	7
091813	14:12	4	f.kwoop	38	2147	5
091813	14:12	4	f.kweech	39	858	5
091813	14:12	4	f.loche	40	1902	7
091813	14:12	4	f.dreer	41	2743	5
091813	14:12	4	f.gweeze	42	1607	4
091813	14:12	4	f.shrafe	43	1773	7
091813	14:12	4	f.zathe	44	1508	8
091813	14:12	4	f.fogue	45	1750	6
091813	14:12	4	f.vashe	46	1141	4
091813	14:12	4	f.rashe	47	1949	5
091813	14:12	4	f.gwane	48	1469	4
091813	14:12	4	f.kwashe	49	1160	4
091813	14:12	4	f.smoof	50	1438	4
091813	14:12	4	f.zoche	51	1507	7
091813	14:12	4	f.moob	52	1941	4
091813	14:12	4	f.smooge	53	1157	4
091813	14:12	4	f.smeem	54	1452	5
091813	14:12	4	f.fleef	55	832	5
091813	14:12	4	f.flooth	56	1004	5
091813	14:12	4	f.joog	57	689	5
091813	14:12	4	f.foche	58	1219	4
091813	14:12	4	f.gweek	59	1120	4
091813	14:12	4	f.vafe	60	1745	4
091813	14:12	4	howtype	1	7815	4
091813	16:04	1	speed	1	5875	50
091813	16:04	1	error	2	3009	96
091813	16:04	1	whichhand	3	6271	left
091813	16:04	1	f.pleek	1	3247	3
091813	16:04	1	f.choom	2	2675	6
091813	16:04	1	f.dwoom	3	2030	5
091813	16:04	1	f.speeth	4	2243	3
091813	16:04	1	f.shroor	5	3278	8
091813	16:04	1	f.smoge	6	2065	2
091813	16:04	1	f.thane	7	2829	2
091813	16:04	1	f.gwoge	8	2569	8
091813	16:04	1	f.drose	9	2640	8
091813	16:04	1	f.fleef	10	1861	7
091813	16:04	1	f.yape	11	2408	7
091813	16:04	1	f.gwook	12	2157	3
091813	16:04	1	f.dwave	13	1822	4
091813	16:04	1	f.swache	14	1826	7
091813	16:04	1	f.broshe	15	1287	7
091813	16:04	1	f.droor	16	2393	2
091813	16:04	1	f.bloge	17	1838	7
091813	16:04	1	f.kwoshe	18	1035	7
091813	16:04	1	f.gwoop	19	1783	2
091813	16:04	1	f.dwache	20	3166	3
091813	16:04	1	f.jathe	21	1949	8
091813	16:04	1	f.skashe	22	1965	9
091813	16:04	1	f.soche	23	1772	8
091813	16:04	1	f.pleech	24	1595	7
091813	16:04	1	f.zoog	25	1776	1
091813	16:04	1	f.boog	26	1631	4
091813	16:04	1	f.thweeze	27	1938	6
091813	16:04	1	f.snofe	28	2539	4
091813	16:04	1	f.threege	29	2292	7
091813	16:04	1	f.doob	30	1886	2
091813	16:04	1	f.gweem	31	1400	6
091813	16:04	1	f.tweeth	32	1174	6
091813	16:04	1	f.plofe	33	2005	4
091813	16:04	1	f.yeet	34	1315	3
091813	16:04	1	f.gweeve	35	1427	7
091813	16:04	1	f.veeb	36	1839	3
091813	16:04	1	f.thwore	37	2836	3
091813	16:04	1	f.bloove	38	2161	7
091813	16:04	1	f.thove	39	1720	4
091813	16:04	1	f.dwoose	40	2296	7
091813	16:04	1	f.proom	41	2378	8
091813	16:04	1	f.glathe	42	1297	7
091813	16:04	1	f.dofe	43	2051	3
091813	16:04	1	f.cheeg	44	1566	6
091813	16:04	1	f.brobe	45	1109	6
091813	16:04	1	f.smeeve	46	2087	3
091813	16:04	1	f.skoose	47	4018	8
091813	16:04	1	f.snone	48	1982	7
091813	16:04	1	f.neege	49	3269	7
091813	16:04	1	f.swoove	50	1176	7
091813	16:04	1	f.glose	51	1134	4
091813	16:04	1	f.shroon	52	1134	6
091813	16:04	1	f.snashe	53	1406	4
091813	16:04	1	f.feep	54	1132	7
091813	16:04	1	f.shrafe	55	1204	6
091813	16:04	1	f.broob	56	1801	3
091813	16:04	1	f.spoog	57	1487	4
091813	16:04	1	f.veeve	58	2457	7
091813	16:04	1	f.blothe	59	1477	4
091813	16:04	1	f.toshe	60	1654	7
091813	16:04	1	r.youth	1	4096	7
091813	16:04	1	r.computer	2	1827	8
091813	16:04	1	r.bake	3	1238	8
091813	16:04	1	r.patient	4	1892	9
091813	16:04	1	r.regretful	5	2054	2
091813	16:04	1	r.trauma	6	1857	1
091813	16:04	1	r.absurd	7	1940	3
091813	16:04	1	r.vanity	8	3078	3
091813	16:04	1	r.letter	9	2073	7
091813	16:04	1	r.debt	10	2348	2
091813	16:04	1	r.humiliate	11	1820	2
091813	16:04	1	r.reptile	12	3169	4
091813	16:04	1	r.shriek	13	1960	2
091813	16:04	1	r.surprised	14	1679	8
091813	16:04	1	r.god	15	1602	9
091813	16:04	1	r.aloof	16	1759	3
091813	16:04	1	r.lightbulb	17	2253	7
091813	16:04	1	r.disaster	18	1786	4
091813	16:04	1	r.poetry	19	1696	6
091813	16:04	1	r.anger	20	1426	2
091813	16:04	1	r.pet	21	1590	7
091813	16:04	1	r.stool	22	1172	3
091813	16:04	1	r.party	23	2235	9
091813	16:04	1	r.invest	24	1872	6
091813	16:04	1	r.razor	25	1138	4
091813	16:04	1	r.dress	26	1386	7
091813	16:04	1	r.couple	27	1697	8
091813	16:04	1	r.immoral	28	1738	2
091813	16:04	1	r.basket	29	1490	8
091813	16:04	1	r.listless	30	2061	3
091813	16:04	1	r.paralysis	31	2072	2
091813	16:04	1	r.coffin	32	1779	3
091813	16:04	1	r.helpless	33	1281	2
091813	16:04	1	r.drown	34	1955	1
091813	16:04	1	r.grenade	35	2163	3
091813	16:04	1	r.hawk	36	2802	4
091813	16:04	1	r.death	37	1456	1
091813	16:04	1	r.pretty	38	1788	9
091813	16:04	1	r.free	39	1202	7
091813	16:04	1	r.innocent	40	1439	8
091813	16:04	1	r.prairie	41	1468	7
091813	16:04	1	r.victory	42	1182	6
091813	16:04	1	r.defiant	43	2220	1
091813	16:04	1	r.corrupt	44	1033	1
091813	16:04	1	r.fat	45	854	1
091813	16:04	1	r.obscene	46	1633	3
091813	16:04	1	r.destruction	47	1022	3
091813	16:04	1	r.tamper	48	1234	4
091813	16:04	1	r.murderer	49	1502	1
091813	16:04	1	r.messy	50	1623	2
091813	16:04	1	r.burdened	51	885	2
091813	16:04	1	r.reverent	52	1127	3
091813	16:04	1	r.louse	53	1231	6
091813	16:04	1	r.body	54	1603	7
091813	16:04	1	r.bullet	55	1625	3
091813	16:04	1	r.idea	56	1094	6
091813	16:04	1	r.excitement	57	903	7
091813	16:04	1	r.trouble	58	1088	8
091813	16:04	1	r.sickness	59	2402	1
091813	16:04	1	r.rusty	60	912	4
091813	16:04	1	howtype	1	7816	6
091813	16:26	1	speed	1	3142	57
091813	16:26	1	error	2	2504	92
091813	16:26	1	whichhand	3	5028	right
091813	16:26	1	r.virtue	1	5046	6
091813	16:26	1	r.bench	2	4043	4
091813	16:26	1	r.politeness	3	4040	8
091813	16:26	1	r.appliance	4	2781	9
091813	16:26	1	r.gender	5	1572	5
091813	16:26	1	r.hostage	6	1787	1
091813	16:26	1	r.horror	7	1656	1
091813	16:26	1	r.naked	8	4372	5
091813	16:26	1	r.diploma	9	1788	9
091813	16:26	1	r.sun	10	4770	8
091813	16:26	1	r.hawk	11	2858	5
091813	16:26	1	r.dollar	12	3478	6
091813	16:26	1	r.chin	13	2674	5
091813	16:26	1	r.bus	14	2324	3
091813	16:26	1	r.grin	15	1622	9
091813	16:26	1	r.passage	16	2755	8
091813	16:26	1	r.despise	17	1675	1
091813	16:26	1	r.valentine	18	2734	8
091813	16:26	1	r.noisy	19	3655	6
091813	16:26	1	r.door	20	1627	5
091813	16:26	1	r.bandage	21	3343	4
091813	16:26	1	r.brother	22	2280	9
091813	16:26	1	r.fat	23	1418	1
091813	16:26	1	r.scalding	24	3183	1
091813	16:26	1	r.material	25	1702	5
091813	16:26	1	r.nectar	26	1943	4
091813	16:26	1	r.party	27	1519	8
091813	16:26	1	r.enraged	28	5640	4
091813	16:26	1	r.toothache	29	1782	1
091813	16:26	1	r.demon	30	1260	1
091813	16:26	1	r.perfection	31	1343	9
091813	16:26	1	r.ace	32	1389	9
091813	16:26	1	r.suicide	33	1165	1
091813	16:26	1	r.trumpet	34	3651	7
091813	16:26	1	r.stink	35	2048	1
091813	16:26	1	r.vigorous	36	1619	9
091813	16:26	1	r.glory	37	1072	9
091813	16:26	1	r.vacation	38	1067	9
091813	16:26	1	r.bees	39	2773	2
091813	16:26	1	r.snake	40	1186	1
091813	16:26	1	r.jelly	41	3034	5
091813	16:26	1	r.money	42	1264	9
091813	16:26	1	r.inspired	43	1059	9
091813	16:26	1	r.passion	44	909	9
091813	16:26	1	r.nun	45	3031	7
091813	16:26	1	r.palace	46	1204	9
091813	16:26	1	r.inferior	47	4657	4
091813	16:26	1	r.rollercoaster	48	1678	8
091813	16:26	1	r.drown	49	1208	1
091813	16:26	1	r.name	50	4749	6
091813	16:26	1	r.infatuation	51	1310	9
091813	16:26	1	r.impressed	52	759	9
091813	16:26	1	r.lantern	53	1574	9
091813	16:26	1	r.adorable	54	813	9
091813	16:26	1	r.scornful	55	1274	1
091813	16:26	1	r.icebox	56	2781	6
091813	16:26	1	r.crutch	57	1883	2
091813	16:26	1	r.sapphire	58	1286	9
091813	16:26	1	r.scum	59	1304	1
091813	16:26	1	r.depression	60	1177	1
091813	16:26	1	f.shrague	1	6670	1
091813	16:26	1	f.koob	2	6963	4
091813	16:26	1	f.tashe	3	3275	2
091813	16:26	1	f.yeet	4	2094	2
091813	16:26	1	f.boosh	5	2672	5
091813	16:26	1	f.foche	6	2187	6
091813	16:26	1	f.smashe	7	3490	6
091813	16:26	1	f.gwage	8	2237	4
091813	16:26	1	f.drague	9	2121	5
091813	16:26	1	f.yoof	10	4938	3
091813	16:26	1	f.snabe	11	2172	1
091813	16:26	1	f.kwague	12	3651	5
091813	16:26	1	f.theek	13	2311	1
091813	16:26	1	f.smeesh	14	2952	5
091813	16:26	1	f.voof	15	2513	5
091813	16:26	1	f.twoor	16	1130	5
091813	16:26	1	f.slooch	17	1505	4
091813	16:26	1	f.wothe	18	2196	6
091813	16:26	1	f.drate	19	2385	8
091813	16:26	1	f.yooge	20	4184	5
091813	16:26	1	f.smane	21	3807	6
091813	16:26	1	f.gweeze	22	3069	4
091813	16:26	1	f.gwool	23	2985	3
091813	16:26	1	f.glooge	24	1567	2
091813	16:26	1	f.slale	25	2806	7
091813	16:26	1	f.pleesh	26	1644	8
091813	16:26	1	f.cheege	27	1656	4
091813	16:26	1	f.speeth	28	1060	6
091813	16:26	1	f.thwool	29	2831	8
091813	16:26	1	f.veek	30	1243	5
091813	16:26	1	f.thrave	31	2933	7
091813	16:26	1	f.thweeg	32	3783	5
091813	16:26	1	f.weech	33	3222	4
091813	16:26	1	f.yeef	34	1476	6
091813	16:26	1	f.thoop	35	1798	8
091813	16:26	1	f.skoge	36	4748	5
091813	16:26	1	f.smoose	37	3612	7
091813	16:26	1	f.swome	38	1994	6
091813	16:26	1	f.snoom	39	1744	6
091813	16:26	1	f.smague	40	1607	1
091813	16:26	1	f.shreef	41	1469	2
091813	16:26	1	f.kwame	42	1704	8
091813	16:26	1	f.boshe	43	2009	4
091813	16:26	1	f.smeel	44	1727	6
091813	16:26	1	f.fleep	45	3166	3
091813	16:26	1	f.groosh	46	2614	3
091813	16:26	1	f.feech	47	5300	7
091813	16:26	1	f.flobe	48	1798	5
091813	16:26	1	f.gwoshe	49	1436	4
091813	16:26	1	f.snague	50	6600	5
091813	16:26	1	f.thrashe	51	3047	6
091813	16:26	1	f.wogue	52	3132	5
091813	16:26	1	f.drase	53	3957	1
091813	16:26	1	f.shreel	54	1100	1
091813	16:26	1	f.smove	55	1927	3
091813	16:26	1	f.stoose	56	1031	2
091813	16:26	1	f.dwashe	57	1451	6
091813	16:26	1	f.gleese	58	3654	5
091813	16:26	1	f.skome	59	1323	1
091813	16:26	1	f.thweef	60	1172	6
091813	16:26	1	howtype	1	8865	6
091913	12:29	1	speed	1	3597	45
091913	12:29	1	error	2	2388	95
091913	12:29	1	whichhand	3	6107	right
091913	12:29	1	r.nice	1	5091	5
091913	12:29	1	r.punishment	2	2046	3
091913	12:29	1	r.neurotic	3	4689	3
091913	12:29	1	r.honest	4	4965	5
091913	12:29	1	r.good	5	8917	6
091913	12:29	1	r.hate	6	1657	4
091913	12:29	1	r.profit	7	5300	5
091913	12:29	1	r.hostage	8	1519	3
091913	12:29	1	r.victory	9	2351	7
091913	12:29	1	r.vision	10	3543	6
091913	12:29	1	r.passage	11	1888	5
091913	12:29	1	r.wonder	12	2138	6
091913	12:29	1	r.banner	13	5011	5
091913	12:29	1	r.decompose	14	3264	4
091913	12:29	1	r.evil	15	4068	2
091913	12:29	1	r.affection	16	1985	8
091913	12:29	1	r.mutation	17	3407	4
091913	12:29	1	r.truck	18	1629	5
091913	12:29	1	r.chance	19	4017	5
091913	12:29	1	r.impair	20	2927	4
091913	12:29	1	r.engine	21	6696	5
091913	12:29	1	r.plain	22	4002	4
091913	12:29	1	r.disturb	23	1362	4
091913	12:29	1	r.umbrella	24	9904	6
091913	12:29	1	r.bouquet	25	1188	6
091913	12:29	1	r.warmth	26	1571	7
091913	12:29	1	r.violin	27	2522	7
091913	12:29	1	r.innocent	28	1987	6
091913	12:29	1	r.malaria	29	2881	2
091913	12:29	1	r.hospital	30	2435	3
091913	12:29	1	r.ennui	31	4881	5
091913	12:29	1	r.happy	32	4972	7
091913	12:29	1	r.lie	33	1356	3
091913	12:29	1	r.fungus	34	1516	3
091913	12:29	1	r.bloody	35	1925	2
091913	12:29	1	r.obscene	36	3582	3
091913	12:29	1	r.radiator	37	3541	5
091913	12:29	1	r.weary	38	2037	4
091913	12:29	1	r.misery	39	1066	3
091913	12:29	1	r.snob	40	1381	3
091913	12:29	1	r.gangrene	41	3515	5
091913	12:29	1	r.black	42	2517	4
091913	12:29	1	r.journal	43	4462	6
091913	12:29	1	r.rattle	44	2370	5
091913	12:29	1	r.criminal	45	1377	4
091913	12:29	1	r.name	46	3047	5
091913	12:29	1	r.voyage	47	4531	6
091913	12:29	1	r.cozy	48	1388	7
091913	12:29	1	r.leprosy	49	1483	2
091913	12:29	1	r.desire	50	1509	6
091913	12:29	1	r.prick	51	1606	3
091913	12:29	1	r.gun	52	3428	2
091913	12:29	1	r.bench	53	1937	5
091913	12:29	1	r.priest	54	4905	4
091913	12:29	1	r.excitement	55	2012	6
091913	12:29	1	r.lantern	56	1737	6
091913	12:29	1	r.idol	57	1393	4
091913	12:29	1	r.jewel	58	1959	5
091913	12:29	1	r.fun	59	1407	6
091913	12:29	1	r.urine	60	1868	2
091913	12:29	1	f.speeg	1	1291	4
091913	12:29	1	f.blove	2	3638	4
091913	12:29	1	f.tweese	3	1955	4
091913	12:29	1	f.snome	4	1419	4
091913	12:29	1	f.treek	5	1607	4
091913	12:29	1	f.preek	6	1741	4
091913	12:29	1	f.prage	7	3181	6
091913	12:29	1	f.zabe	8	3436	7
091913	12:29	1	f.plare	9	1225	6
091913	12:29	1	f.shobe	10	1382	6
091913	12:29	1	f.gweel	11	1452	5
091913	12:29	1	f.joot	12	5384	5
091913	12:29	1	f.gweet	13	2319	4
091913	12:29	1	f.greech	14	1240	4
091913	12:29	1	f.kroche	15	5660	4
091913	12:29	1	f.leel	16	1408	6
091913	12:29	1	f.thwore	17	2206	6
091913	12:29	1	f.cheed	18	2084	5
091913	12:29	1	f.vode	19	1718	5
091913	12:29	1	f.snoove	20	1279	4
091913	12:29	1	f.dreer	21	5881	4
091913	12:29	1	f.thwoof	22	14869	5
091913	12:29	1	f.chooge	23	1380	4
091913	12:29	1	f.flashe	24	2539	6
091913	12:29	1	f.throde	25	1475	6
091913	12:29	1	f.dwathe	26	2679	5
091913	12:29	1	f.speesh	27	1417	5
091913	12:29	1	f.plashe	28	1926	6
091913	12:29	1	f.beesh	29	2310	5
091913	12:29	1	f.speeth	30	1864	5
091913	12:29	1	f.sheeg	31	2235	4
091913	12:29	1	f.mooth	32	5703	5
091913	12:29	1	f.zooge	33	1370	6
091913	12:29	1	f.gwoob	34	2553	6
091913	12:29	1	f.ploosh	35	1384	6
091913	12:29	1	f.zoor	36	1143	6
091913	12:29	1	f.zofe	37	1055	6
091913	12:29	1	f.tweeth	38	1434	5
091913	12:29	1	f.gweese	39	2438	4
091913	12:29	1	f.tafe	40	1227	6
091913	12:29	1	f.thweek	41	2567	5
091913	12:29	1	f.sweege	42	1590	4
091913	12:29	1	f.stafe	43	3852	5
091913	12:29	1	f.prothe	44	5160	5
091913	12:29	1	f.swooze	45	1249	4
091913	12:29	1	f.skoshe	46	1436	4
091913	12:29	1	f.doob	47	2169	4
091913	12:29	1	f.fope	48	2128	5
091913	12:29	1	f.krague	49	3272	4
091913	12:29	1	f.twoob	50	3252	4
091913	12:29	1	f.flague	51	2719	5
091913	12:29	1	f.blafe	52	2049	5
091913	12:29	1	f.skoose	53	1205	4
091913	12:29	1	f.jabe	54	3402	4
091913	12:29	1	f.speeve	55	3544	4
091913	12:29	1	f.sleef	56	1921	4
091913	12:29	1	f.shrague	57	3322	4
091913	12:29	1	f.brooge	58	1075	4
091913	12:29	1	f.noche	59	1534	5
091913	12:29	1	f.droot	60	4438	6
091913	12:29	1	howtype	1	16978	7
091913	13:06	1	speed	1	3242	71
091913	13:06	1	error	2	2704	94
091913	13:06	1	whichhand	3	6676	Right
091913	13:06	1	r.arrogant	1	5175	3
091913	13:06	1	r.chocolate	2	2142	9
091913	13:06	1	r.grief	3	1958	1
091913	13:06	1	r.circus	4	3702	3
091913	13:06	1	r.writer	5	3352	8
091913	13:06	1	r.plant	6	2976	8
091913	13:06	1	r.sweetheart	7	1671	9
091913	13:06	1	r.rabbit	8	1530	8
091913	13:06	1	r.slum	9	2002	1
091913	13:06	1	r.nipple	10	1816	2
091913	13:06	1	r.invest	11	3229	5
091913	13:06	1	r.restaurant	12	3154	6
091913	13:06	1	r.metal	13	2042	4
091913	13:06	1	r.palace	14	1759	8
091913	13:06	1	r.highway	15	2710	7
091913	13:06	1	r.fat	16	2056	1
091913	13:06	1	r.progress	17	2019	8
091913	13:06	1	r.custom	18	1792	8
091913	13:06	1	r.sphere	19	2079	5
091913	13:06	1	r.taxi	20	2888	5
091913	13:06	1	r.magical	21	3860	8
091913	13:06	1	r.gun	22	1679	2
091913	13:06	1	r.health	23	2786	6
091913	13:06	1	r.prestige	24	1696	8
091913	13:06	1	r.disappoint	25	1850	1
091913	13:06	1	r.green	26	3830	7
091913	13:06	1	r.eat	27	3331	6
091913	13:06	1	r.red	28	2588	3
091913	13:06	1	r.vest	29	1866	7
091913	13:06	1	r.sunset	30	1597	8
091913	13:06	1	r.knot	31	3091	4
091913	13:06	1	r.interest	32	4086	7
091913	13:06	1	r.broken	33	2128	2
091913	13:06	1	r.table	34	2849	5
091913	13:06	1	r.razor	35	1829	1
091913	13:06	1	r.rattle	36	3434	6
091913	13:06	1	r.agony	37	1599	1
091913	13:06	1	r.mushroom	38	2740	5
091913	13:06	1	r.hurt	39	2077	2
091913	13:06	1	r.skyscraper	40	3927	8
091913	13:06	1	r.handicap	41	2504	4
091913	13:06	1	r.trophy	42	2490	8
091913	13:06	1	r.violent	43	1925	1
091913	13:06	1	r.embattled	44	3301	4
091913	13:06	1	r.lie	45	2551	2
091913	13:06	1	r.enraged	46	1207	1
091913	13:06	1	r.rage	47	925	1
091913	13:06	1	r.hell	48	2309	1
091913	13:06	1	r.moody	49	4375	2
091913	13:06	1	r.impressed	50	2054	6
091913	13:06	1	r.privacy	51	3386	5
091913	13:06	1	r.damage	52	1977	3
091913	13:06	1	r.limber	53	3616	6
091913	13:06	1	r.wasp	54	1701	2
091913	13:06	1	r.detest	55	1582	1
091913	13:06	1	r.earth	56	1861	9
091913	13:06	1	r.wedding	57	1608	9
091913	13:06	1	r.ankle	58	1598	5
091913	13:06	1	r.detail	59	2683	6
091913	13:06	1	r.intimate	60	2134	7
091913	13:06	1	f.thrage	1	3595	5
091913	13:06	1	f.slashe	2	2826	3
091913	13:06	1	f.trofe	3	3423	6
091913	13:06	1	f.preege	4	3948	3
091913	13:06	1	f.thwode	5	2860	7
091913	13:06	1	f.skase	6	2792	2
091913	13:06	1	f.kwame	7	3190	8
091913	13:06	1	f.zoshe	8	1837	3
091913	13:06	1	f.speet	9	2594	2
091913	13:06	1	f.thrope	10	4864	6
091913	13:06	1	f.thwothe	11	3563	7
091913	13:06	1	f.nage	12	1763	2
091913	13:06	1	f.gwooge	13	7522	8
091913	13:06	1	f.bloog	14	2813	3
091913	13:06	1	f.woog	15	3387	6
091913	13:06	1	f.skobe	16	4497	4
091913	13:06	1	f.drague	17	1684	2
091913	13:06	1	f.smeeth	18	2854	1
091913	13:06	1	f.floog	19	3314	6
091913	13:06	1	f.thone	20	3116	3
091913	13:06	1	f.yeeb	21	3197	8
091913	13:06	1	f.gloog	22	4387	7
091913	13:06	1	f.groge	23	1579	3
091913	13:06	1	f.yooch	24	2937	8
091913	13:06	1	f.meeb	25	2178	7
091913	13:06	1	f.frothe	26	1621	8
091913	13:06	1	f.slase	27	2155	2
091913	13:06	1	f.thobe	28	5602	6
091913	13:06	1	f.drote	29	4689	7
091913	13:06	1	f.shrague	30	4708	3
091913	13:06	1	f.meef	31	1775	3
091913	13:06	1	f.zobe	32	6405	5
091913	13:06	1	f.stathe	33	2421	3
091913	13:06	1	f.veef	34	2522	2
091913	13:06	1	f.gweeve	35	2523	8
091913	13:06	1	f.preem	36	3189	3
091913	13:06	1	f.thole	37	1475	2
091913	13:06	1	f.thwoor	38	4294	1
091913	13:06	1	f.bleeve	39	1457	8
091913	13:06	1	f.jeeg	40	2204	7
091913	13:06	1	f.thoof	41	4554	5
091913	13:06	1	f.jeem	42	3307	7
091913	13:06	1	f.noof	43	2309	6
091913	13:06	1	f.thofe	44	2182	2
091913	13:06	1	f.doof	45	2381	1
091913	13:06	1	f.wathe	46	5555	7
091913	13:06	1	f.vofe	47	1556	4
091913	13:06	1	f.glooth	48	2124	3
091913	13:06	1	f.smame	49	5709	2
091913	13:06	1	f.breer	50	2791	7
