date	time	subject	trialcode	trialnum	latency	response
090213	14:36	1	speed	1	5452	fdjhsfkdl
090213	14:36	1	error	2	1492	jhdlsfj
090213	14:36	1	whichhand	3	1038	jfdslfj
090213	14:36	1	f.shrage	1	493	1
090213	14:36	1	f.skothe	2	487	4
090213	14:36	1	f.kweese	3	167	0
090213	14:36	1	r.reward	1	467	3
090213	14:36	1	r.key	2	414	5
090213	14:36	1	r.fraud	3	361	7
090213	14:36	1	r.criminal	4	2568	0
090213	14:36	1	howtype	1	1622	4
090313	09:01	1	speed	1	2837	43
090313	09:01	1	error	2	2737	97
090313	09:01	1	whichhand	3	7250	right
090313	09:01	1	f.dwashe	1	6003	3
090313	09:01	1	f.zoog	2	4740	7
090313	09:01	1	f.gwade	3	5132	5
090313	09:01	1	f.twape	4	5862	4
090313	09:01	1	f.pame	5	4570	4
090313	09:01	1	f.chame	6	2986	7
090313	09:01	1	f.plool	7	1777	8
090313	09:01	1	f.kleeg	8	2687	4
090313	09:01	1	f.shreege	9	3409	2
090313	09:01	1	f.slashe	10	2032	1
090313	09:01	1	f.cheeb	11	1619	2
090313	09:01	1	f.dooth	12	2368	4
090313	09:01	1	f.dwooze	13	2646	6
090313	09:01	1	f.freege	14	3363	7
090313	09:01	1	f.noosh	15	4187	4
090313	09:01	1	f.smose	16	2219	8
090313	09:01	1	f.troke	17	4111	6
090313	09:01	1	f.kwode	18	2642	5
090313	09:01	1	f.snase	19	3694	5
090313	09:01	1	f.mothe	20	3032	7
090313	09:01	1	f.twage	21	5668	5
090313	09:01	1	f.slool	22	6567	4
090313	09:01	1	f.drathe	23	3354	1
090313	09:01	1	f.skoof	24	2538	7
090313	09:01	1	f.vame	25	3206	6
090313	09:01	1	f.thope	26	2528	4
090313	09:01	1	f.thote	27	5880	4
090313	09:01	1	f.chage	28	3164	2
090313	09:01	1	f.thave	29	4330	4
090313	09:01	1	f.bogue	30	4188	2
090313	09:01	1	f.broosh	31	5267	3
090313	09:01	1	f.zeet	32	4015	6
090313	09:01	1	f.vashe	33	1884	4
090313	09:01	1	f.throol	34	3431	3
090313	09:01	1	f.thogue	35	1364	4
090313	09:01	1	f.roshe	36	6635	6
090313	09:01	1	f.yooge	37	3809	3
090313	09:01	1	f.boog	38	8950	7
090313	09:01	1	f.vook	39	1737	4
090313	09:01	1	f.prool	40	5153	8
090313	09:01	1	f.krofe	41	2353	4
090313	09:01	1	f.klafe	42	6305	6
090313	09:01	1	f.cheeth	43	2899	7
090313	09:01	1	f.throve	44	3269	4
090313	09:01	1	f.thoot	45	4057	8
090313	09:01	1	f.bashe	46	5798	6
090313	09:01	1	f.flage	47	5261	7
090313	09:01	1	f.toge	48	5265	9
090313	09:01	1	f.thwafe	49	2909	4
090313	09:01	1	f.floob	50	5061	9
090313	09:01	1	f.thode	51	4538	4
090313	09:01	1	f.jache	52	3123	8
090313	09:01	1	f.flooth	53	2708	7
090313	09:01	1	f.gweeg	54	4005	9
090313	09:01	1	f.tweem	55	3876	3
090313	09:01	1	f.tweeth	56	1767	2
090313	09:01	1	f.trooch	57	4797	3
090313	09:01	1	f.gwoob	58	4842	7
090313	09:01	1	f.thobe	59	2177	3
090313	09:01	1	f.prothe	60	2440	2
090313	09:01	1	r.pervert	1	8763	2
090313	09:01	1	r.cyclone	2	3276	5
090313	09:01	1	r.scorching	3	4135	3
090313	09:01	1	r.venom	4	1784	1
090313	09:01	1	r.muffin	5	2965	8
090313	09:01	1	r.scandal	6	3534	2
090313	09:01	1	r.hawk	7	2646	5
090313	09:01	1	r.circus	8	1466	9
090313	09:01	1	r.car	9	2188	6
090313	09:01	1	r.insult	10	3812	4
090313	09:01	1	r.detail	11	6081	5
090313	09:01	1	r.penthouse	12	2333	7
090313	09:01	1	r.delayed	13	1788	4
090313	09:01	1	r.justice	14	7619	6
090313	09:01	1	r.restaurant	15	5290	5
090313	09:01	1	r.decompose	16	2094	4
090313	09:01	1	r.pinch	17	4015	4
090313	09:01	1	r.green	18	3237	7
090313	09:01	1	r.fungus	19	2570	1
090313	09:01	1	r.terrible	20	2497	4
090313	09:01	1	r.anxious	21	2851	5
090313	09:01	1	r.radiator	22	2119	5
090313	09:01	1	r.silly	23	1872	6
090313	09:01	1	r.pressure	24	1971	4
090313	09:01	1	r.allergy	25	3322	4
090313	09:01	1	r.concentrate	26	3571	5
090313	09:01	1	r.rollercoaster	27	7379	5
090313	09:01	1	r.loneliness	28	4475	4
090313	09:01	1	r.name	29	3206	5
090313	09:01	1	r.jelly	30	3980	9
090313	09:01	1	r.terrific	31	2299	6
090313	09:01	1	r.king	32	6109	6
090313	09:01	1	r.bright	33	1919	6
090313	09:01	1	r.cut	34	4408	3
090313	09:01	1	r.reserved	35	3854	4
090313	09:01	1	r.knot	36	6490	6
090313	09:01	1	r.lie	37	7549	4
090313	09:01	1	r.paralysis	38	3151	3
090313	09:01	1	r.erotic	39	5312	6
090313	09:01	1	r.cheer	40	3082	7
090313	09:01	1	r.savior	41	3548	8
090313	09:01	1	r.bottle	42	2029	9
090313	09:01	1	r.crown	43	2617	8
090313	09:01	1	r.fantasy	44	2893	9
090313	09:01	1	r.champion	45	1840	9
090313	09:01	1	r.twilight	46	4060	7
090313	09:01	1	r.immature	47	4448	5
090313	09:01	1	r.frigid	48	4196	4
090313	09:01	1	r.angry	49	3987	3
090313	09:01	1	r.golfer	50	2545	6
090313	09:01	1	r.filth	51	1370	4
090313	09:01	1	r.river	52	2777	5
090313	09:01	1	r.sexy	53	2375	6
090313	09:01	1	r.manner	54	3254	5
090313	09:01	1	r.elated	55	1866	4
090313	09:01	1	r.abundance	56	4509	4
090313	09:01	1	r.horse	57	2110	5
090313	09:01	1	r.loser	58	6391	3
090313	09:01	1	r.cockroach	59	1895	3
090313	09:01	1	r.friend	60	3184	6
090313	09:01	1	howtype	1	18773	5
090313	11:03	1	speed	1	5722	54
090313	11:03	1	error	2	2787	100
090313	11:03	1	whichhand	3	6755	Left
090313	11:03	1	r.fantasy	1	4242	7
090313	11:03	1	r.mutation	2	3543	4
090313	11:03	1	r.outrage	3	3031	2
090313	11:03	1	r.crisis	4	3258	5
090313	11:03	1	r.luxury	5	2455	3
090313	11:03	1	r.hate	6	4315	1
090313	11:03	1	r.unhappy	7	3796	2
090313	11:03	1	r.honey	8	2259	4
090313	11:03	1	r.habit	9	2623	5
090313	11:03	1	r.bliss	10	2012	6
090313	11:03	1	r.beast	11	4161	4
090313	11:03	1	r.voyage	12	2241	8
090313	11:03	1	r.greet	13	1781	3
090313	11:03	1	r.addicted	14	2211	7
090313	11:03	1	r.dawn	15	1744	8
090313	11:03	1	r.festive	16	1944	3
090313	11:03	1	r.scurvy	17	2015	3
090313	11:03	1	r.rejected	18	2740	1
090313	11:03	1	r.opinion	19	2269	1
090313	11:03	1	r.brutal	20	1904	8
090313	11:03	1	r.material	21	2505	7
090313	11:03	1	r.garbage	22	2156	4
090313	11:03	1	r.coast	23	3555	5
090313	11:03	1	r.handicap	24	2123	1
090313	11:03	1	r.square	25	1421	3
090313	11:03	1	r.trunk	26	1185	5
090313	11:03	1	r.fun	27	1647	2
090313	11:03	1	r.war	28	1475	1
090313	11:03	1	r.book	29	1557	3
090313	11:03	1	r.adorable	30	1237	6
090313	11:03	1	r.obey	31	1313	5
090313	11:03	1	r.mantel	32	1514	8
090313	11:03	1	r.tune	33	1467	7
090313	11:03	1	r.FALSE	34	2838	4
090313	11:03	1	r.victim	35	1234	1
090313	11:03	1	r.abortion	36	1767	1
090313	11:03	1	r.coffin	37	2405	9
090313	11:03	1	r.decorate	38	1602	4
090313	11:03	1	r.wise	39	1984	4
090313	11:03	1	r.intercourse	40	2406	1
090313	11:03	1	r.crude	41	2357	2
090313	11:03	1	r.jug	42	1685	2
090313	11:03	1	r.salad	43	1150	5
090313	11:03	1	r.cabinet	44	1151	9
090313	11:03	1	r.detached	45	1062	7
090313	11:03	1	r.coarse	46	1137	4
090313	11:03	1	r.option	47	1065	3
090313	11:03	1	r.wicked	48	2075	4
090313	11:03	1	r.severe	49	2381	8
090313	11:03	1	r.errand	50	2493	7
090313	11:03	1	r.lively	51	2110	5
090313	11:03	1	r.imagine	52	1704	2
090313	11:03	1	r.history	53	873	5
090313	11:03	1	r.cliff	54	1620	7
090313	11:03	1	r.dirty	55	889	4
090313	11:03	1	r.win	56	771	2
090313	11:03	1	r.snow	57	962	4
090313	11:03	1	r.youth	58	648	7
090313	11:03	1	r.windmill	59	1155	4
090313	11:03	1	r.mobility	60	1579	4
090313	11:03	1	f.sloom	1	5888	6
090313	11:03	1	f.dofe	2	3163	4
090313	11:03	1	f.wogue	3	2772	2
090313	11:03	1	f.thashe	4	1603	5
090313	11:03	1	f.thwook	5	1505	7
090313	11:03	1	f.groor	6	1114	4
090313	11:03	1	f.zoshe	7	3538	7
090313	11:03	1	f.smeen	8	6187	6
090313	11:03	1	f.gleese	9	2739	1
090313	11:03	1	f.neeg	10	2124	4
090313	11:03	1	f.trake	11	3045	4
090313	11:03	1	f.frothe	12	2577	6
090313	11:03	1	f.toshe	13	1664	8
090313	11:03	1	f.flashe	14	1915	1
090313	11:03	1	f.meeth	15	5059	6
090313	11:03	1	f.blole	16	2464	6
090313	11:03	1	f.thweep	17	1898	9
090313	11:03	1	f.togue	18	2539	6
090313	11:03	1	f.dwofe	19	1932	3
090313	11:03	1	f.plake	20	1637	6
090313	11:03	1	f.groob	21	1721	4
090313	11:03	1	f.thweer	22	882	3
090313	11:03	1	f.skeeg	23	1547	1
090313	11:03	1	f.nooge	24	3731	3
090313	11:03	1	f.thwape	25	2284	7
090313	11:03	1	f.prook	26	1336	3
090313	11:03	1	f.gloge	27	1383	4
090313	11:03	1	f.gleeth	28	1725	7
090313	11:03	1	f.swoob	29	2854	6
090313	11:03	1	f.noche	30	4777	7
090313	11:03	1	f.zeef	31	1841	7
090313	11:03	1	f.shroot	32	1557	5
090313	11:03	1	f.twache	33	1629	7
090313	11:03	1	f.treef	34	2193	5
090313	11:03	1	f.shrose	35	879	3
090313	11:03	1	f.toove	36	897	4
090313	11:03	1	f.blave	37	1041	7
090313	11:03	1	f.dweese	38	1630	5
090313	11:03	1	f.thwane	39	1690	6
090313	11:03	1	f.gwage	40	1309	7
090313	11:03	1	f.chool	41	982	4
090313	11:03	1	f.zeesh	42	955	2
090313	11:03	1	f.gween	43	1084	3
090313	11:03	1	f.sneed	44	861	5
090313	11:03	1	f.thrache	45	1128	7
090313	11:03	1	f.thwoze	46	920	7
090313	11:03	1	f.twore	47	1496	4
090313	11:03	1	f.smole	48	906	3
090313	11:03	1	f.kwood	49	940	4
090313	11:03	1	f.nooch	50	1011	4
090313	11:03	1	f.thoshe	51	1144	5
090313	11:03	1	f.fafe	52	1023	7
090313	11:03	1	f.slood	53	1043	5
090313	11:03	1	f.snathe	54	808	3
090313	11:03	1	f.gware	55	908	6
090313	11:03	1	f.sleer	56	1590	9
090313	11:03	1	f.tweer	57	1756	7
090313	11:03	1	f.threeth	58	636	5
090313	11:03	1	f.stache	59	855	6
090313	11:03	1	f.bloob	60	1051	6
090313	11:03	1	howtype	1	11941	6
090313	12:54	1	speed	1	37303	42
090313	12:54	1	error	2	4967	92
090313	12:54	1	whichhand	3	5360	right
090313	12:54	1	r.sissy	1	3788	2
090313	12:54	1	r.burial	2	2522	1
090313	12:54	1	r.thought	3	2724	5
090313	12:54	1	r.gentle	4	3517	9
090313	12:54	1	r.privacy	5	2919	6
090313	12:54	1	r.punishment	6	1920	1
090313	12:54	1	r.murderer	7	1449	1
090313	12:54	1	r.suicide	8	1140	1
090313	12:54	1	r.thermometer	9	1939	5
090313	12:54	1	r.sky	10	1740	6
090313	12:54	1	r.menace	11	1868	3
090313	12:54	1	r.cruel	12	1600	2
090313	12:54	1	r.greet	13	1334	6
090313	12:54	1	r.social	14	2053	8
090313	12:54	1	r.clothing	15	1985	9
090313	12:54	1	r.hydrant	16	3400	6
090313	12:54	1	r.stress	17	1862	2
090313	12:54	1	r.aroused	18	1809	9
090313	12:54	1	r.progress	19	3213	6
090313	12:54	1	r.imagine	20	1659	7
090313	12:54	1	r.teacher	21	2030	7
090313	12:54	1	r.lavish	22	1515	8
090313	12:54	1	r.tennis	23	1499	7
090313	12:54	1	r.scholar	24	1540	7
090313	12:54	1	r.addict	25	1941	1
090313	12:54	1	r.ink	26	1357	5
090313	12:54	1	r.bride	27	1845	9
090313	12:54	1	r.spirit	28	1680	8
090313	12:54	1	r.people	29	1715	9
090313	12:54	1	r.utensil	30	2012	5
090313	12:54	1	r.bored	31	1465	4
090313	12:54	1	r.outdoors	32	1907	7
090313	12:54	1	r.mold	33	1621	4
090313	12:54	1	r.voyage	34	1746	7
090313	12:54	1	r.fight	35	1882	3
090313	12:54	1	r.lighthouse	36	1172	5
090313	12:54	1	r.pet	37	1411	8
090313	12:54	1	r.moral	38	1287	9
090313	12:54	1	r.flood	39	1769	4
090313	12:54	1	r.optimism	40	1953	9
090313	12:54	1	r.horror	41	1832	2
090313	12:54	1	r.obey	42	2787	4
090313	12:54	1	r.blue	43	1994	4
090313	12:54	1	r.promotion	44	1433	7
090313	12:54	1	r.excuse	45	2021	4
090313	12:54	1	r.pest	46	1298	3
090313	12:54	1	r.friendly	47	1547	7
090313	12:54	1	r.morgue	48	2259	5
090313	12:54	1	r.pizza	49	1166	6
090313	12:54	1	r.errand	50	2444	3
090313	12:54	1	r.python	51	1217	5
090313	12:54	1	r.snuggle	52	1654	8
090313	12:54	1	r.derelict	53	1833	4
090313	12:54	1	r.scorching	54	1917	3
090313	12:54	1	r.jug	55	2590	6
090313	12:54	1	r.severe	56	1869	3
090313	12:54	1	r.wish	57	1384	8
090313	12:54	1	r.scalding	58	3437	4
090313	12:54	1	r.crutch	59	1394	4
090313	12:54	1	r.daylight	60	1240	6
090313	12:54	1	f.brothe	1	3142	5
090313	12:54	1	f.thoog	2	5446	6
090313	12:54	1	f.plave	3	4235	4
090313	12:54	1	f.yeep	4	2984	4
090313	12:54	1	f.yoze	5	1759	4
090313	12:54	1	f.sleege	6	2238	5
090313	12:54	1	f.throoth	7	3043	4
090313	12:54	1	f.blove	8	3070	6
090313	12:54	1	f.pleer	9	1528	4
090313	12:54	1	f.poom	10	2634	6
090313	12:54	1	f.snoge	11	3566	6
090313	12:54	1	f.thwode	12	1660	4
090313	12:54	1	f.twoor	13	1073	4
090313	12:54	1	f.thweege	14	707	4
090313	12:54	1	f.theesh	15	1293	5
090313	12:54	1	f.zoove	16	1438	6
090313	12:54	1	f.smood	17	1210	6
090313	12:54	1	f.tweesh	18	1487	4
090313	12:54	1	f.gleese	19	2161	6
090313	12:54	1	f.blothe	20	1616	5
090313	12:54	1	f.gwole	21	1381	4
090313	12:54	1	f.gwoge	22	826	4
090313	12:54	1	f.gwague	23	783	4
090313	12:54	1	f.thwake	24	1477	5
090313	12:54	1	f.foof	25	1710	8
090313	12:54	1	f.gwode	26	1024	4
090313	12:54	1	f.gleef	27	3037	6
090313	12:54	1	f.smool	28	1362	6
090313	12:54	1	f.thoon	29	815	5
090313	12:54	1	f.skome	30	989	5
090313	12:54	1	f.shreen	31	1282	4
090313	12:54	1	f.trogue	32	1349	4
090313	12:54	1	f.throge	33	957	4
090313	12:54	1	f.jache	34	3083	6
090313	12:54	1	f.speem	35	2734	6
090313	12:54	1	f.slole	36	2055	5
090313	12:54	1	f.fogue	37	1339	5
090313	12:54	1	f.gwooge	38	2139	4
090313	12:54	1	f.froshe	39	1707	6
090313	12:54	1	f.drathe	40	1269	5
090313	12:54	1	f.doche	41	3608	4
090313	12:54	1	f.zabe	42	5446	4
090313	12:54	1	f.blathe	43	3891	6
090313	12:54	1	f.dreese	44	1886	7
090313	12:54	1	f.tage	45	3167	4
090313	12:54	1	f.cheege	46	1720	5
090313	12:54	1	f.trook	47	2208	4
090313	12:54	1	f.yeech	48	3806	4
090313	12:54	1	f.smofe	49	1292	6
090313	12:54	1	f.thathe	50	2061	4
090313	12:54	1	f.shrape	51	1337	4
090313	12:54	1	f.sneege	52	3786	5
090313	12:54	1	f.shreese	53	1247	4
090313	12:54	1	f.theep	54	1132	4
090313	12:54	1	f.zoob	55	1748	6
090313	12:54	1	f.throok	56	1763	4
090313	12:54	1	f.bove	57	1969	7
090313	12:54	1	f.vook	58	1586	6
090313	12:54	1	f.thwothe	59	1280	4
090313	12:54	1	f.brashe	60	2234	3
090313	12:54	1	howtype	1	10717	4
090313	13:46	1	speed	1	4470	51
090313	13:46	1	error	2	3759	88
090313	13:46	1	whichhand	3	6256	Right
090313	13:46	1	f.dwoke	1	9272	3
090313	13:46	1	f.sleege	2	7645	4
090313	13:46	1	f.dween	3	4947	4
090313	13:46	1	f.brage	4	6844	4
090313	13:46	1	f.glothe	5	5081	2
090313	13:46	1	f.thweel	6	5292	7
090313	13:46	1	f.woche	7	4927	5
090313	13:46	1	f.swoose	8	4625	6
090313	13:46	1	f.throle	9	4918	5
090313	13:46	1	f.yane	10	5264	7
090313	13:46	1	f.smoop	11	5484	7
090313	13:46	1	f.stoob	12	6480	6
090313	13:46	1	f.zeesh	13	3980	7
090313	13:46	1	f.drode	14	4970	4
090313	13:46	1	f.bloob	15	3179	8
090313	13:46	1	f.spothe	16	6449	4
090313	13:46	1	f.zook	17	2967	9
090313	13:46	1	f.frobe	18	3526	7
090313	13:46	1	f.thwane	19	4391	5
090313	13:46	1	f.jogue	20	2878	7
090313	13:46	1	f.snoob	21	8496	5
090313	13:46	1	f.twase	22	5716	5
090313	13:46	1	f.tweef	23	3039	3
090313	13:46	1	f.lache	24	5627	3
090313	13:46	1	f.dwofe	25	5296	2
090313	13:46	1	f.floshe	26	3859	6
090313	13:46	1	f.yase	27	5159	4
090313	13:46	1	f.prage	28	4039	7
090313	13:46	1	f.skeeg	29	5644	8
090313	13:46	1	f.trobe	30	3081	7
090313	13:46	1	f.prooch	31	2804	8
090313	13:46	1	f.greeg	32	3489	5
090313	13:46	1	f.steeth	33	3516	8
090313	13:46	1	f.teege	34	2374	8
090313	13:46	1	f.jeem	35	3613	9
090313	13:46	1	f.drote	36	4851	5
090313	13:46	1	f.snove	37	4055	6
090313	13:46	1	f.ploge	38	4979	5
090313	13:46	1	f.cheeg	39	4139	8
090313	13:46	1	f.theeth	40	4780	4
090313	13:46	1	f.smooze	41	2035	8
090313	13:46	1	f.spove	42	3560	5
090313	13:46	1	f.plooge	43	3039	6
090313	13:46	1	f.plook	44	1724	7
090313	13:46	1	f.smathe	45	3861	3
090313	13:46	1	f.kwabe	46	5496	6
090313	13:46	1	f.glase	47	3859	5
090313	13:46	1	f.prate	48	3439	7
090313	13:46	1	f.bleege	49	2180	7
090313	13:46	1	f.thweeb	50	3170	5
090313	13:46	1	f.thwofe	51	3505	3
090313	13:46	1	f.flobe	52	2635	6
090313	13:46	1	f.zade	53	5696	4
090313	13:46	1	f.flogue	54	4275	6
090313	13:46	1	f.snone	55	2806	7
090313	13:46	1	f.spoop	56	2372	8
090313	13:46	1	f.dwoop	57	2651	8
090313	13:46	1	f.spate	58	3663	6
090313	13:46	1	f.spope	59	3883	7
090313	13:46	1	f.kweeve	60	3845	5
090313	13:46	1	r.butter	1	4916	8
090313	13:46	1	r.lie	2	2094	1
090313	13:46	1	r.tidy	3	2208	9
090313	13:46	1	r.grime	4	2102	2
090313	13:46	1	r.terrible	5	1608	1
090313	13:46	1	r.car	6	5021	7
090313	13:46	1	r.waterfall	7	1891	9
090313	13:46	1	r.context	8	5269	4
090313	13:46	1	r.vigorous	9	4682	5
090313	13:46	1	r.discouraged	10	1653	1
090313	13:46	1	r.pest	11	1208	1
090313	13:46	1	r.spider	12	830	1
090313	13:46	1	r.pillow	13	1706	9
090313	13:46	1	r.chance	14	3699	8
090313	13:46	1	r.barrel	15	4437	5
090313	13:46	1	r.stool	16	1891	5
090313	13:46	1	r.engine	17	2693	3
090313	13:46	1	r.avalanche	18	2695	2
090313	13:46	1	r.comfort	19	1865	9
090313	13:46	1	r.impair	20	2676	3
090313	13:46	1	r.spanking	21	6198	3
090313	13:46	1	r.startled	22	4837	5
090313	13:46	1	r.trunk	23	4651	4
090313	13:46	1	r.heroin	24	1775	1
090313	13:46	1	r.snake	25	966	1
090313	13:46	1	r.nectar	26	2933	7
090313	13:46	1	r.pleasure	27	1430	9
090313	13:46	1	r.dollar	28	1466	9
090313	13:46	1	r.humiliate	29	2060	1
090313	13:46	1	r.flirt	30	4088	2
090313	13:46	1	r.waste	31	2026	3
090313	13:46	1	r.crutch	32	2063	4
090313	13:46	1	r.headache	33	1394	1
090313	13:46	1	r.beast	34	5111	5
090313	13:46	1	r.nonchalant	35	2825	5
090313	13:46	1	r.soft	36	1534	9
090313	13:46	1	r.limber	37	3398	8
090313	13:46	1	r.shotgun	38	3724	6
090313	13:46	1	r.regretful	39	1862	1
090313	13:46	1	r.plain	40	4369	5
090313	13:46	1	r.method	41	2337	5
090313	13:46	1	r.filth	42	1625	1
090313	13:46	1	r.lazy	43	3118	3
090313	13:46	1	r.brother	44	2439	9
090313	13:46	1	r.curtains	45	2556	5
090313	13:46	1	r.yellow	46	2988	7
090313	13:46	1	r.red	47	3282	8
090313	13:46	1	r.fragrance	48	1693	8
090313	13:46	1	r.candy	49	2087	9
090313	13:46	1	r.ink	50	4385	6
090313	13:46	1	r.dump	51	1912	2
090313	13:46	1	r.time	52	2433	5
090313	13:46	1	r.birthday	53	1622	9
090313	13:46	1	r.criminal	54	1587	1
090313	13:46	1	r.industry	55	2729	5
090313	13:46	1	r.music	56	1649	9
090313	13:46	1	r.vision	57	3372	6
090313	13:46	1	r.sissy	58	2372	3
090313	13:46	1	r.noisy	59	2131	2
090313	13:46	1	r.obscene	60	4308	6
090313	13:46	1	howtype	1	15997	7
090413	15:35	1	speed	1	3959	34
090413	15:35	1	error	2	2958	97
090413	15:35	1	whichhand	3	7383	right
090413	15:35	1	f.twame	1	8406	1
090413	15:35	1	f.zate	2	6934	3
090413	15:35	1	f.skeef	3	4328	2
090413	15:35	1	f.yooch	4	2233	1
090413	15:35	1	f.froob	5	2318	1
090413	15:35	1	f.blafe	6	4775	4
090413	15:35	1	f.shreeb	7	4982	3
090413	15:35	1	f.drase	8	4629	7
090413	15:35	1	f.ploor	9	2555	5
090413	15:35	1	f.glathe	10	4394	6
090413	15:35	1	f.plage	11	5521	1
090413	15:35	1	f.vame	12	2763	4
090413	15:35	1	f.skoob	13	4226	2
090413	15:35	1	f.shrooge	14	4679	1
090413	15:35	1	f.breep	15	3291	4
090413	15:35	1	f.thwome	16	6261	7
090413	15:35	1	f.weeg	17	3146	1
090413	15:35	1	f.poosh	18	2874	3
090413	15:35	1	f.thweeg	19	2349	2
090413	15:35	1	f.dwase	20	4213	5
090413	15:35	1	f.thague	21	1883	5
090413	15:35	1	f.shraze	22	4309	4
090413	15:35	1	f.zoor	23	3047	2
090413	15:35	1	f.gwase	24	5290	4
090413	15:35	1	f.dwole	25	1758	2
090413	15:35	1	f.swoze	26	2790	1
090413	15:35	1	f.dache	27	2124	1
090413	15:35	1	f.brague	28	3709	5
090413	15:35	1	f.throoge	29	4183	2
090413	15:35	1	f.gweech	30	2566	1
090413	15:35	1	f.neesh	31	2853	5
090413	15:35	1	f.foof	32	6313	2
090413	15:35	1	f.chood	33	2516	1
090413	15:35	1	f.kweeb	34	1309	1
090413	15:35	1	f.shrase	35	3198	6
090413	15:35	1	f.treeb	36	1340	2
090413	15:35	1	f.drore	37	4988	6
090413	15:35	1	f.snoche	38	2140	2
090413	15:35	1	f.thwage	39	4220	5
090413	15:35	1	f.smeel	40	2618	2
090413	15:35	1	f.zofe	41	3167	5
090413	15:35	1	f.gwafe	42	3462	2
090413	15:35	1	f.plafe	43	4882	4
090413	15:35	1	f.flove	44	4197	7
090413	15:35	1	f.snane	45	2675	1
090413	15:35	1	f.thweer	46	4486	5
090413	15:35	1	f.glafe	47	5081	5
090413	15:35	1	f.teef	48	6292	1
090413	15:35	1	f.feeb	49	3848	2
090413	15:35	1	f.chome	50	3628	6
090413	15:35	1	f.spame	51	2921	1
090413	15:35	1	f.yofe	52	2482	5
090413	15:35	1	f.zope	53	3573	6
090413	15:35	1	f.gwoof	54	1580	2
090413	15:35	1	f.thoop	55	2922	2
090413	15:35	1	f.thwoose	56	1844	5
090413	15:35	1	f.deech	57	1735	2
090413	15:35	1	f.prale	58	1471	1
090413	15:35	1	f.noosh	59	1714	4
090413	15:35	1	f.gwane	60	5747	5
090413	15:35	1	r.daylight	1	4694	9
090413	15:35	1	r.devil	2	1544	1
090413	15:35	1	r.wonder	3	3896	6
090413	15:35	1	r.memory	4	3666	5
090413	15:35	1	r.discouraged	5	1814	1
090413	15:35	1	r.poison	6	1386	1
090413	15:35	1	r.thoughtful	7	3409	8
090413	15:35	1	r.lesbian	8	2095	1
090413	15:35	1	r.repentant	9	6584	6
090413	15:35	1	r.hungry	10	4823	2
090413	15:35	1	r.beggar	11	9622	3
090413	15:35	1	r.shriek	12	9597	3
090413	15:35	1	r.cut	13	1806	1
090413	15:35	1	r.pasta	14	2332	9
090413	15:35	1	r.elated	15	3068	2
090413	15:35	1	r.king	16	2887	7
090413	15:35	1	r.manner	17	3474	9
090413	15:35	1	r.deserter	18	3413	2
090413	15:35	1	r.festive	19	2242	9
090413	15:35	1	r.sick	20	1471	1
090413	15:35	1	r.timid	21	2089	5
090413	15:35	1	r.delayed	22	3940	3
090413	15:35	1	r.addict	23	4069	2
090413	15:35	1	r.passage	24	3104	5
090413	15:35	1	r.controlling	25	2218	1
090413	15:35	1	r.leisurely	26	2880	8
090413	15:35	1	r.rage	27	2650	1
090413	15:35	1	r.impotent	28	4702	3
090413	15:35	1	r.owl	29	3049	6
090413	15:35	1	r.trust	30	2389	9
090413	15:35	1	r.adventure	31	2587	8
090413	15:35	1	r.bankrupt	32	1770	2
090413	15:35	1	r.sunrise	33	2192	9
090413	15:35	1	r.rape	34	1406	1
090413	15:35	1	r.mucus	35	1364	1
090413	15:35	1	r.surgery	36	3642	5
090413	15:35	1	r.news	37	4511	4
090413	15:35	1	r.lawsuit	38	2633	2
090413	15:35	1	r.laughter	39	1405	9
090413	15:35	1	r.prairie	40	3474	6
090413	15:35	1	r.radiant	41	2470	9
090413	15:35	1	r.birthday	42	1777	9
090413	15:35	1	r.lawn	43	1727	5
090413	15:35	1	r.friend	44	2648	8
090413	15:35	1	r.muffin	45	2924	7
090413	15:35	1	r.idiot	46	3389	2
090413	15:35	1	r.exercise	47	2828	5
090413	15:35	1	r.whistle	48	1712	9
090413	15:35	1	r.passion	49	1697	9
090413	15:35	1	r.disgusted	50	1243	1
090413	15:35	1	r.honey	51	1454	9
090413	15:35	1	r.triumphant	52	1402	9
090413	15:35	1	r.dress	53	2903	8
090413	15:35	1	r.dentist	54	3233	4
090413	15:35	1	r.moody	55	2790	2
090413	15:35	1	r.context	56	3028	2
090413	15:35	1	r.displeased	57	2897	2
090413	15:35	1	r.mind	58	1739	5
090413	15:35	1	r.excellence	59	1451	9
090413	15:35	1	r.horror	60	1287	1
090413	15:35	1	howtype	1	16784	4
090513	10:58	1	speed	1	3820	48
090513	10:58	1	error	2	2829	100
090513	10:58	1	whichhand	3	6972	Left
090513	10:58	1	f.shrogue	1	11346	3
090513	10:58	1	f.thwoosh	2	8796	6
090513	10:58	1	f.thote	3	5772	4
090513	10:58	1	f.slare	4	7196	3
090513	10:58	1	f.gwaze	5	9027	5
090513	10:58	1	f.veef	6	8466	3
090513	10:58	1	f.zoop	7	6648	6
090513	10:58	1	f.floshe	8	4789	7
090513	10:58	1	f.thoof	9	7556	4
090513	10:58	1	f.smeeth	10	3830	7
090513	10:58	1	f.yeeb	11	6491	4
090513	10:58	1	f.jague	12	6782	8
090513	10:58	1	f.veek	13	4806	2
090513	10:58	1	f.voom	14	3677	7
090513	10:58	1	f.blave	15	6488	5
090513	10:58	1	f.thwote	16	7091	4
090513	10:58	1	f.thweek	17	4023	3
090513	10:58	1	f.frave	18	4421	8
090513	10:58	1	f.shrathe	19	4298	6
090513	10:58	1	f.zobe	20	5467	4
090513	10:58	1	f.gloof	21	2617	6
090513	10:58	1	f.dabe	22	4102	5
090513	10:58	1	f.shreech	23	6520	2
090513	10:58	1	f.thool	24	6443	6
090513	10:58	1	f.cheeb	25	3120	7
090513	10:58	1	f.speeb	26	5481	6
090513	10:58	1	f.krathe	27	9917	5
090513	10:58	1	f.thwoog	28	3992	2
090513	10:58	1	f.slore	29	6327	4
090513	10:58	1	f.swothe	30	6360	4
090513	10:58	1	f.shrobe	31	7777	4
090513	10:58	1	f.skage	32	3433	7
090513	10:58	1	f.throom	33	3030	7
090513	10:58	1	f.troom	34	6923	6
090513	10:58	1	f.thake	35	3845	7
090513	10:58	1	f.seeb	36	4354	4
090513	10:58	1	f.shreep	37	3650	7
090513	10:58	1	f.dwaze	38	4686	6
090513	10:58	1	f.smeem	39	3529	7
090513	10:58	1	f.skoke	40	3282	4
090513	10:58	1	f.thwoom	41	4421	6
090513	10:58	1	f.dwoke	42	3547	3
090513	10:58	1	f.droog	43	2475	2
090513	10:58	1	f.breege	44	4734	5
090513	10:58	1	f.vame	45	3167	1
090513	10:58	1	f.yoop	46	2655	3
090513	10:58	1	f.kwoove	47	5427	9
090513	10:58	1	f.thwoze	48	5328	4
090513	10:58	1	f.thwoshe	49	3602	3
090513	10:58	1	f.jote	50	4216	8
090513	10:58	1	f.gweet	51	2686	6
090513	10:58	1	f.twoosh	52	7544	4
090513	10:58	1	f.grobe	53	4890	3
090513	10:58	1	f.voop	54	3421	2
090513	10:58	1	f.throgue	55	3706	7
090513	10:58	1	f.dwose	56	2581	4
090513	10:58	1	f.plage	57	5067	8
090513	10:58	1	f.theeg	58	3647	3
090513	10:58	1	f.vope	59	6587	7
090513	10:58	1	f.mofe	60	3067	3
090513	10:58	1	r.alone	1	4930	3
090513	10:58	1	r.abortion	2	2179	1
090513	10:58	1	r.muddy	3	3625	3
090513	10:58	1	r.priest	4	3238	9
090513	10:58	1	r.sentiment	5	3123	8
090513	10:58	1	r.astronaut	6	8083	7
090513	10:58	1	r.valentine	7	6192	9
090513	10:58	1	r.profit	8	2600	7
090513	10:58	1	r.party	9	2061	9
090513	10:58	1	r.bird	10	2009	9
090513	10:58	1	r.city	11	4046	6
090513	10:58	1	r.dirty	12	2483	2
090513	10:58	1	r.festive	13	3749	6
090513	10:58	1	r.fever	14	2965	2
090513	10:58	1	r.ugly	15	1909	1
090513	10:58	1	r.hairdryer	16	3126	5
090513	10:58	1	r.kettle	17	5399	6
090513	10:58	1	r.month	18	3086	6
090513	10:58	1	r.engine	19	3073	6
090513	10:58	1	r.girl	20	1972	9
090513	10:58	1	r.millionaire	21	1923	9
090513	10:58	1	r.contempt	22	3692	5
090513	10:58	1	r.key	23	2254	6
090513	10:58	1	r.bright	24	1930	9
090513	10:58	1	r.grateful	25	1762	9
090513	10:58	1	r.vehicle	26	2633	6
090513	10:58	1	r.pasta	27	3254	7
090513	10:58	1	r.legend	28	4090	8
090513	10:58	1	r.ship	29	2941	5
090513	10:58	1	r.baby	30	2061	9
090513	10:58	1	r.hatred	31	6712	1
090513	10:58	1	r.mutilate	32	2379	1
090513	10:58	1	r.quality	33	2562	6
090513	10:58	1	r.mucus	34	2497	3
090513	10:58	1	r.malaria	35	2395	1
090513	10:58	1	r.pistol	36	2984	5
090513	10:58	1	r.prestige	37	1871	9
090513	10:58	1	r.wife	38	2394	9
090513	10:58	1	r.criminal	39	4528	2
090513	10:58	1	r.yellow	40	3233	5
090513	10:58	1	r.garment	41	2398	5
090513	10:58	1	r.wit	42	2227	7
090513	10:58	1	r.blubber	43	2416	4
090513	10:58	1	r.muffin	44	1821	6
090513	10:58	1	r.limber	45	2762	7
090513	10:58	1	r.lust	46	3161	3
090513	10:58	1	r.athletics	47	1705	9
090513	10:58	1	r.tobacco	48	3266	2
090513	10:58	1	r.music	49	2502	9
090513	10:58	1	r.activate	50	3359	7
090513	10:58	1	r.guillotine	51	3943	5
090513	10:58	1	r.pinch	52	4871	4
090513	10:58	1	r.wounds	53	3795	4
090513	10:58	1	r.annoy	54	2809	4
090513	10:58	1	r.comfort	55	8718	7
090513	10:58	1	r.salad	56	2210	7
090513	10:58	1	r.horror	57	3103	4
090513	10:58	1	r.assassin	58	1985	3
090513	10:58	1	r.statue	59	2175	5
090513	10:58	1	r.tease	60	3277	6
090513	10:58	1	howtype	1	34198	6
090513	11:26	1	speed	1	3485	54
090513	11:26	1	error	2	3161	96
090513	11:26	1	whichhand	3	7145	right
090513	11:26	1	r.dump	1	7828	4
090513	11:26	1	r.doll	2	3139	5
090513	11:26	1	r.farm	3	3778	7
090513	11:26	1	r.anguished	4	3938	6
090513	11:26	1	r.nipple	5	3163	5
090513	11:26	1	r.nectar	6	2946	8
090513	11:26	1	r.joke	7	3395	9
090513	11:26	1	r.foul	8	3745	7
090513	11:26	1	r.greed	9	3881	2
090513	11:26	1	r.yacht	10	8811	6
090513	11:26	1	r.gentle	11	3035	6
090513	11:26	1	r.flower	12	2880	5
090513	11:26	1	r.miracle	13	2851	4
090513	11:26	1	r.pistol	14	2663	6
090513	11:26	1	r.dustpan	15	3138	6
090513	11:26	1	r.coast	16	4346	7
090513	11:26	1	r.safe	17	3851	8
090513	11:26	1	r.horror	18	2367	7
090513	11:26	1	r.clouds	19	3342	9
090513	11:26	1	r.virgin	20	3854	5
090513	11:26	1	r.win	21	2987	4
090513	11:26	1	r.hurt	22	2985	4
090513	11:26	1	r.hooker	23	3152	4
090513	11:26	1	r.father	24	4704	5
090513	11:26	1	r.fantasy	25	2843	6
090513	11:26	1	r.bandage	26	4206	6
090513	11:26	1	r.prairie	27	1797	9
090513	11:26	1	r.love	28	3562	7
090513	11:26	1	r.wise	29	2210	6
090513	11:26	1	r.wagon	30	5823	6
090513	11:26	1	r.measles	31	2325	6
090513	11:26	1	r.wit	32	2590	7
090513	11:26	1	r.name	33	2245	5
090513	11:26	1	r.applause	34	2217	9
090513	11:26	1	r.syphilis	35	2974	6
090513	11:26	1	r.haphazard	36	2301	9
090513	11:26	1	r.arrogant	37	2655	4
090513	11:26	1	r.lion	38	3546	7
090513	11:26	1	r.immature	39	4251	5
090513	11:26	1	r.circle	40	5719	6
090513	11:26	1	r.consoled	41	2618	9
090513	11:26	1	r.horse	42	2518	5
090513	11:26	1	r.festive	43	2552	8
090513	11:26	1	r.frigid	44	2336	9
090513	11:26	1	r.abuse	45	4832	4
090513	11:26	1	r.burial	46	4125	3
090513	11:26	1	r.savior	47	5454	3
090513	11:26	1	r.beggar	48	6739	4
090513	11:26	1	r.skyscraper	49	3773	6
090513	11:26	1	r.illness	50	2853	3
090513	11:26	1	r.repentant	51	2905	2
090513	11:26	1	r.razor	52	2755	7
090513	11:26	1	r.infection	53	5539	5
090513	11:26	1	r.jolly	54	2332	9
090513	11:26	1	r.dawn	55	3533	8
090513	11:26	1	r.startled	56	2094	9
090513	11:26	1	r.contents	57	3463	5
090513	11:26	1	r.legend	58	2147	7
090513	11:26	1	r.victory	59	3794	5
090513	11:26	1	r.desire	60	3177	5
090513	11:26	1	f.kloog	1	9486	6
090513	11:26	1	f.trooch	2	3252	4
090513	11:26	1	f.gwote	3	3312	4
090513	11:26	1	f.noshe	4	1345	4
090513	11:26	1	f.dreech	5	1577	3
090513	11:26	1	f.krague	6	3863	6
090513	11:26	1	f.skathe	7	2883	6
090513	11:26	1	f.twabe	8	1973	3
090513	11:26	1	f.snood	9	4796	6
090513	11:26	1	f.dreet	10	2619	3
090513	11:26	1	f.spoge	11	1416	2
090513	11:26	1	f.snooch	12	1837	1
090513	11:26	1	f.dwood	13	1577	2
090513	11:26	1	f.speeth	14	2999	1
090513	11:26	1	f.feech	15	1549	1
090513	11:26	1	f.sloob	16	1493	1
090513	11:26	1	f.thwofe	17	1502	1
090513	11:26	1	f.dweet	18	1656	1
090513	11:26	1	f.thwooze	19	1003	1
090513	11:26	1	f.theed	20	1033	1
090513	11:26	1	f.shroop	21	1173	1
090513	11:26	1	f.snome	22	1491	1
090513	11:26	1	f.draze	23	3677	4
090513	11:26	1	f.sweel	24	1760	2
090513	11:26	1	f.gwade	25	1567	2
090513	11:26	1	f.drote	26	1710	2
090513	11:26	1	f.kleef	27	2575	1
090513	11:26	1	f.skoshe	28	3398	5
090513	11:26	1	f.trook	29	2284	4
090513	11:26	1	f.klale	30	1431	5
090513	11:26	1	f.sashe	31	2235	5
090513	11:26	1	f.thwage	32	2352	2
090513	11:26	1	f.gwape	33	1439	1
090513	11:26	1	f.swooth	34	3371	3
090513	11:26	1	f.thwothe	35	3051	2
090513	11:26	1	f.blobe	36	1887	2
090513	11:26	1	f.sleesh	37	3273	3
090513	11:26	1	f.swaze	38	1637	2
090513	11:26	1	f.snague	39	2201	5
090513	11:26	1	f.gothe	40	1647	4
090513	11:26	1	f.klole	41	1850	4
090513	11:26	1	f.swoob	42	2309	2
090513	11:26	1	f.glogue	43	2199	2
090513	11:26	1	f.gloche	44	2357	6
090513	11:26	1	f.troof	45	2156	3
090513	11:26	1	f.twape	46	4820	1
090513	11:26	1	f.dwole	47	3930	3
090513	11:26	1	f.swooge	48	1859	2
090513	11:26	1	f.zope	49	2087	2
090513	11:26	1	f.voop	50	1313	2
090513	11:26	1	f.neech	51	1594	1
090513	11:26	1	f.blool	52	1031	1
090513	11:26	1	f.toosh	53	923	1
090513	11:26	1	f.klood	54	1908	2
090513	11:26	1	f.thwoze	55	1238	1
090513	11:26	1	f.feef	56	1426	1
090513	11:26	1	f.prote	57	2254	2
090513	11:26	1	f.drogue	58	2442	5
090513	11:26	1	f.thwoon	59	2230	1
090513	11:26	1	f.chobe	60	1178	1
090513	11:26	1	howtype	1	23311	6
090513	12:29	1	speed	1	2819	9
090513	12:29	1	error	2	2781	77
090513	12:29	1	whichhand	3	10644	rigt hand
090513	12:29	1	r.twilight	1	10780	5
090513	12:29	1	r.swift	2	6150	5
090513	12:29	1	r.aroused	3	7527	4
090513	12:29	1	r.kind	4	4785	9
090513	12:29	1	r.house	5	3120	9
090513	12:29	1	r.tidy	6	3346	5
090513	12:29	1	r.trouble	7	2418	1
090513	12:29	1	r.name	8	6103	8
090513	12:29	1	r.kerosene	9	4442	5
090513	12:29	1	r.ecstasy	10	5398	4
090513	12:29	1	r.people	11	1701	5
090513	12:29	1	r.thankful	12	4775	8
090513	12:29	1	r.headlight	13	3342	5
090513	12:29	1	r.bland	14	3566	5
090513	12:29	1	r.peace	15	2334	4
090513	12:29	1	r.victory	16	2174	9
090513	12:29	1	r.sky	17	3021	6
090513	12:29	1	r.sex	18	2555	5
090513	12:29	1	r.mystic	19	6058	5
090513	12:29	1	r.riches	20	2287	5
090513	12:29	1	r.poster	21	3361	6
090513	12:29	1	r.consoled	22	3073	6
090513	12:29	1	r.afraid	23	4588	2
090513	12:29	1	r.clock	24	1859	5
090513	12:29	1	r.bullet	25	3366	4
090513	12:29	1	r.identity	26	3022	5
090513	12:29	1	r.chair	27	3227	5
090513	12:29	1	r.lesbian	28	2944	1
090513	12:29	1	r.vigorous	29	4416	2
090513	12:29	1	r.neurotic	30	2078	2
090513	12:29	1	r.truth	31	4096	9
090513	12:29	1	r.radiator	32	3082	5
090513	12:29	1	r.paradise	33	2213	9
090513	12:29	1	r.wine	34	2530	1
090513	12:29	1	r.freedom	35	1771	9
090513	12:29	1	r.astronaut	36	3641	5
090513	12:29	1	r.person	37	2574	5
090513	12:29	1	r.fun	38	1430	9
090513	12:29	1	r.chance	39	3337	9
090513	12:29	1	r.execution	40	6722	8
090513	12:29	1	r.trumpet	41	2069	5
090513	12:29	1	r.sissy	42	3400	1
090513	12:29	1	r.daylight	43	3286	5
090513	12:29	1	r.liberty	44	2505	8
090513	12:29	1	r.contents	45	3947	6
090513	12:29	1	r.insult	46	2547	1
090513	12:29	1	r.enraged	47	5539	5
090513	12:29	1	r.quality	48	1669	9
090513	12:29	1	r.autumn	49	5207	5
090513	12:29	1	r.fat	50	3334	3
090513	12:29	1	r.wife	51	1935	9
090513	12:29	1	r.champ	52	3103	5
090513	12:29	1	r.flag	53	2305	8
090513	12:29	1	r.suspicious	54	2611	7
090513	12:29	1	r.corpse	55	3424	5
090513	12:29	1	r.truck	56	2062	5
090513	12:29	1	r.cruel	57	1201	5
090513	12:29	1	r.crash	58	3270	1
090513	12:29	1	r.diver	59	2369	5
090513	12:29	1	r.dove	60	2705	8
090513	12:29	1	f.zobe	1	6728	2
090513	12:29	1	f.chole	2	2250	2
090513	12:29	1	f.kreer	3	2598	1
090513	12:29	1	f.smage	4	2996	5
090513	12:29	1	f.bleef	5	2946	7
090513	12:29	1	f.teesh	6	2738	5
090513	12:29	1	f.steeth	7	1635	5
090513	12:29	1	f.thoof	8	1751	5
090513	12:29	1	f.boshe	9	1614	5
090513	12:29	1	f.krooge	10	2707	4
090513	12:29	1	f.smeeve	11	2469	2
090513	12:29	1	f.poog	12	1304	3
090513	12:29	1	f.shobe	13	4314	4
090513	12:29	1	f.threege	14	2835	5
090513	12:29	1	f.yoshe	15	7768	4
090513	12:29	1	f.dwave	16	6577	3
090513	12:29	1	f.gwoom	17	2073	3
090513	12:29	1	f.threeg	18	1956	5
090513	12:29	1	f.shreeg	19	3619	5
090513	12:29	1	f.twose	20	2489	6
090513	12:29	1	f.dwoke	21	1388	5
090513	12:29	1	f.sneeg	22	1642	2
090513	12:29	1	f.snave	23	1750	1
090513	12:29	1	f.kloshe	24	2614	4
090513	12:29	1	f.yane	25	5331	2
090513	12:29	1	f.freeg	26	908	3
090513	12:29	1	f.zeesh	27	1606	4
090513	12:29	1	f.gweep	28	5163	2
090513	12:29	1	f.thrape	29	4339	1
090513	12:29	1	f.threeb	30	1356	2
090513	12:29	1	f.choom	31	1452	2
090513	12:29	1	f.preesh	32	2231	5
090513	12:29	1	f.thope	33	1388	5
090513	12:29	1	f.nathe	34	4041	4
090513	12:29	1	f.pleer	35	2855	3
090513	12:29	1	f.dathe	36	2434	5
090513	12:29	1	f.spoosh	37	1983	3
090513	12:29	1	f.troke	38	1301	3
090513	12:29	1	f.slofe	39	3215	5
090513	12:29	1	f.skeem	40	2972	6
090513	12:29	1	f.vafe	41	2476	5
090513	12:29	1	f.drabe	42	2334	5
090513	12:29	1	f.kwase	43	2519	4
090513	12:29	1	f.twove	44	2912	5
090513	12:29	1	f.kloche	45	1057	1
090513	12:29	1	f.kreeb	46	2540	1
090513	12:29	1	f.sneeve	47	2109	5
090513	12:29	1	f.mafe	48	5022	1
090513	12:29	1	f.klague	49	1324	5
090513	12:29	1	f.skame	50	3757	4
090513	12:29	1	f.shrole	51	4309	4
090513	12:29	1	f.thwogue	52	2655	5
090513	12:29	1	f.gwake	53	2307	2
090513	12:29	1	f.drade	54	4140	2
090513	12:29	1	f.drothe	55	1709	2
090513	12:29	1	f.moosh	56	3022	4
090513	12:29	1	f.shrache	57	5820	3
090513	12:29	1	f.pleep	58	2298	6
090513	12:29	1	f.krooch	59	2140	4
090513	12:29	1	f.dwague	60	2124	1
090513	12:29	1	howtype	1	14339	3
090513	14:26	1	speed	1	4088	42
090513	14:26	1	error	2	2997	100
090513	14:26	1	whichhand	3	6164	right
090513	14:26	1	f.trake	1	8912	6
090513	14:26	1	f.skague	2	4508	2
090513	14:26	1	f.shrove	3	6734	4
090513	14:26	1	f.thwase	4	5344	7
090513	14:26	1	f.brooge	5	6992	4
090513	14:26	1	f.yeeg	6	3480	6
090513	14:26	1	f.throom	7	3643	9
090513	14:26	1	f.frove	8	3119	7
090513	14:26	1	f.theesh	9	2504	6
090513	14:26	1	f.prothe	10	2906	7
090513	14:26	1	f.yobe	11	6988	8
090513	14:26	1	f.klool	12	5748	9
090513	14:26	1	f.meeth	13	2941	4
090513	14:26	1	f.brogue	14	5558	4
090513	14:26	1	f.floop	15	1823	9
090513	14:26	1	f.preeth	16	5700	6
090513	14:26	1	f.vafe	17	4503	5
090513	14:26	1	f.slool	18	3249	6
090513	14:26	1	f.toosh	19	2253	8
090513	14:26	1	f.brore	20	2481	6
090513	14:26	1	f.thwone	21	7170	7
090513	14:26	1	f.slase	22	1788	6
090513	14:26	1	f.soche	23	3187	4
090513	14:26	1	f.swove	24	8145	6
090513	14:26	1	f.gwofe	25	2675	4
090513	14:26	1	f.gloof	26	2126	8
090513	14:26	1	f.gweeth	27	2903	7
090513	14:26	1	f.stathe	28	3361	6
090513	14:26	1	f.slage	29	2456	5
090513	14:26	1	f.twoor	30	2444	4
090513	14:26	1	f.shroop	31	2392	7
090513	14:26	1	f.vage	32	2638	4
090513	14:26	1	f.sloor	33	5099	6
090513	14:26	1	f.sleem	34	1902	6
090513	14:26	1	f.krore	35	1575	5
090513	14:26	1	f.yoon	36	1590	8
090513	14:26	1	f.thoge	37	2956	6
090513	14:26	1	f.bashe	38	3228	7
090513	14:26	1	f.pleege	39	3305	6
090513	14:26	1	f.thoosh	40	2651	9
090513	14:26	1	f.plache	41	3063	4
090513	14:26	1	f.gwogue	42	3274	6
090513	14:26	1	f.thrafe	43	3942	4
090513	14:26	1	f.throosh	44	5046	8
090513	14:26	1	f.throfe	45	2403	5
090513	14:26	1	f.snase	46	2713	4
090513	14:26	1	f.kwague	47	4058	5
090513	14:26	1	f.veek	48	1862	7
090513	14:26	1	f.droose	49	3169	3
090513	14:26	1	f.blole	50	2824	5
090513	14:26	1	f.kweem	51	2214	8
090513	14:26	1	f.looch	52	1515	6
090513	14:26	1	f.sloob	53	2804	7
090513	14:26	1	f.thoop	54	1818	9
090513	14:26	1	f.breege	55	2942	4
090513	14:26	1	f.dache	56	2854	3
090513	14:26	1	f.kweed	57	2451	7
090513	14:26	1	f.krashe	58	2230	8
090513	14:26	1	f.brare	59	3307	5
090513	14:26	1	f.thwoof	60	2621	9
090513	14:26	1	r.insolent	1	6006	5
090513	14:26	1	r.cash	2	3741	9
090513	14:26	1	r.distressed	3	4694	2
090513	14:26	1	r.mantel	4	5312	6
090513	14:26	1	r.doctor	5	2323	1
090513	14:26	1	r.penalty	6	2132	1
090513	14:26	1	r.plain	7	3780	5
090513	14:26	1	r.maniac	8	4995	4
090513	14:26	1	r.tidy	9	2402	9
090513	14:26	1	r.smallpox	10	2728	1
090513	14:26	1	r.stupid	11	1951	1
090513	14:26	1	r.answer	12	3816	6
090513	14:26	1	r.thorn	13	5517	3
090513	14:26	1	r.roach	14	1896	1
090513	14:26	1	r.paper	15	3225	8
090513	14:26	1	r.damage	16	2574	1
090513	14:26	1	r.pistol	17	2957	9
090513	14:26	1	r.hit	18	2629	2
090513	14:26	1	r.statue	19	5922	6
090513	14:26	1	r.overwhelmed	20	4956	3
090513	14:26	1	r.moody	21	2837	2
090513	14:26	1	r.coward	22	3065	2
090513	14:26	1	r.narcotic	23	3892	3
090513	14:26	1	r.guillotine	24	3535	5
090513	14:26	1	r.idol	25	2496	9
090513	14:26	1	r.fantasy	26	3578	8
090513	14:26	1	r.inspired	27	2240	9
090513	14:26	1	r.coffin	28	1869	1
090513	14:26	1	r.revolver	29	4128	7
090513	14:26	1	r.mother	30	2361	9
090513	14:26	1	r.rigid	31	2376	2
090513	14:26	1	r.casino	32	2526	6
090513	14:26	1	r.fork	33	2167	8
090513	14:26	1	r.ugly	34	3198	3
090513	14:26	1	r.messy	35	3324	2
090513	14:26	1	r.dog	36	1758	9
090513	14:26	1	r.derelict	37	3013	5
090513	14:26	1	r.pride	38	2587	8
090513	14:26	1	r.tense	39	2657	3
090513	14:26	1	r.scum	40	1933	2
090513	14:26	1	r.mutilate	41	2317	1
090513	14:26	1	r.irritate	42	1894	1
090513	14:26	1	r.quarrel	43	3576	2
090513	14:26	1	r.bomb	44	1423	1
090513	14:26	1	r.pinch	45	3980	3
090513	14:26	1	r.rusty	46	4219	4
090513	14:26	1	r.mucus	47	2384	1
090513	14:26	1	r.grief	48	1503	1
090513	14:26	1	r.thrill	49	1728	9
090513	14:26	1	r.sin	50	1913	1
090513	14:26	1	r.cheer	51	1906	9
090513	14:26	1	r.upset	52	1995	2
090513	14:26	1	r.win	53	2345	8
090513	14:26	1	r.guilty	54	4497	2
090513	14:26	1	r.garment	55	2931	6
090513	14:26	1	r.smooth	56	3132	7
090513	14:26	1	r.leisurely	57	2236	7
090513	14:26	1	r.reptile	58	1865	1
090513	14:26	1	r.limber	59	2460	6
090513	14:26	1	r.addicted	60	2359	2
090513	14:26	1	howtype	1	11380	5
090513	16:08	1	speed	1	5512	64
090513	16:08	1	error	2	5073	96
090513	16:08	1	whichhand	3	15078	left
090513	16:08	1	f.moosh	1	14908	7
090513	16:08	1	f.dwaze	2	1065	3
090513	16:08	1	f.dweeze	3	1163	5
090513	16:08	1	f.flage	4	1803	5
090513	16:08	1	f.drase	5	1113	3
090513	16:08	1	f.drose	6	553	4
090513	16:08	1	f.kweech	7	1224	1
090513	16:08	1	f.dogue	8	405	1
090513	16:08	1	f.thwoor	9	1410	1
090513	16:08	1	f.shrache	10	383	1
090513	16:08	1	f.dwage	11	2764	6
090513	16:08	1	f.zoot	12	1019	5
090513	16:08	1	f.gwoosh	13	1752	0
090513	16:08	1	r.plane	1	1741	4
090513	16:08	1	r.terrible	2	646	7
090513	16:08	1	r.hotel	3	1313	1
090513	16:08	1	r.stove	4	978	1
090513	16:08	1	r.nursery	5	984	7
090513	16:08	1	r.comedy	6	1749	0
090513	16:08	1	howtype	1	13732	7
090613	11:59	1	speed	1	3180	54
090613	11:59	1	error	2	3171	94
090613	11:59	1	whichhand	3	5675	right
090613	11:59	1	r.engaged	1	15506	6
090613	11:59	1	r.limber	2	3326	5
090613	11:59	1	r.allergy	3	6046	6
090613	11:59	1	r.puppy	4	2920	7
090613	11:59	1	r.skyscraper	5	3220	4
090613	11:59	1	r.starving	6	1699	4
090613	11:59	1	r.hydrant	7	4532	5
090613	11:59	1	r.dump	8	3246	5
090613	11:59	1	r.whistle	9	4690	6
090613	11:59	1	r.seat	10	3075	4
090613	11:59	1	r.chair	11	4616	5
090613	11:59	1	r.dignified	12	1910	6
090613	11:59	1	r.nourish	13	4111	6
090613	11:59	1	r.promotion	14	2968	6
090613	11:59	1	r.earth	15	2855	5
090613	11:59	1	r.rabbit	16	1332	5
090613	11:59	1	r.beauty	17	1683	7
090613	11:59	1	r.untroubled	18	1942	4
090613	11:59	1	r.rusty	19	2269	5
090613	11:59	1	r.muscular	20	1433	6
090613	11:59	1	r.game	21	1285	5
090613	11:59	1	r.resent	22	1367	5
090613	11:59	1	r.fatigued	23	3190	5
090613	11:59	1	r.gift	24	10469	6
090613	11:59	1	r.rock	25	1890	6
090613	11:59	1	r.incentive	26	1243	6
090613	11:59	1	r.rescue	27	2149	7
090613	11:59	1	r.immoral	28	2231	5
090613	11:59	1	r.luxury	29	7956	6
090613	11:59	1	r.inferior	30	2772	4
090613	11:59	1	r.dummy	31	3684	4
090613	11:59	1	r.bath	32	1799	5
090613	11:59	1	r.computer	33	1779	5
090613	11:59	1	r.scholar	34	2659	7
090613	11:59	1	r.greet	35	1285	7
090613	11:59	1	r.peace	36	1903	8
090613	11:59	1	r.despise	37	4137	5
090613	11:59	1	r.bench	38	4331	6
090613	11:59	1	r.street	39	1340	6
090613	11:59	1	r.cash	40	9252	7
090613	11:59	1	r.humble	41	1346	7
090613	11:59	1	r.derelict	42	3393	5
090613	11:59	1	r.kind	43	1567	8
090613	11:59	1	r.cute	44	807	8
090613	11:59	1	r.ache	45	4604	5
090613	11:59	1	r.mucus	46	2041	4
090613	11:59	1	r.mushroom	47	2223	5
090613	11:59	1	r.headache	48	1476	4
090613	11:59	1	r.paralysis	49	2013	4
090613	11:59	1	r.voyage	50	3843	7
090613	11:59	1	r.ace	51	2335	9
090613	11:59	1	r.tornado	52	1928	4
090613	11:59	1	r.volcano	53	2696	5
090613	11:59	1	r.river	54	2002	6
090613	11:59	1	r.interest	55	1247	7
090613	11:59	1	r.pride	56	1450	7
090613	11:59	1	r.mildew	57	3542	4
090613	11:59	1	r.dreary	58	1373	4
090613	11:59	1	r.cane	59	4989	6
090613	11:59	1	r.patient	60	2299	7
090613	11:59	1	f.skafe	1	4272	4
090613	11:59	1	f.klode	2	1916	4
090613	11:59	1	f.poom	3	1524	5
090613	11:59	1	f.throthe	4	5166	4
090613	11:59	1	f.preege	5	2054	5
090613	11:59	1	f.twope	6	2858	4
090613	11:59	1	f.yooch	7	1757	3
090613	11:59	1	f.smoob	8	1493	4
090613	11:59	1	f.smofe	9	1191	4
090613	11:59	1	f.smale	10	1460	4
090613	11:59	1	f.gweef	11	1488	3
090613	11:59	1	f.gwooch	12	1489	3
090613	11:59	1	f.blafe	13	1084	3
090613	11:59	1	f.foop	14	3910	4
090613	11:59	1	f.kreer	15	1295	4
090613	11:59	1	f.brape	16	1952	4
090613	11:59	1	f.spage	17	2441	4
090613	11:59	1	f.kreeth	18	1860	3
090613	11:59	1	f.dwoot	19	1304	3
090613	11:59	1	f.glogue	20	2793	3
090613	11:59	1	f.shroze	21	1207	3
090613	11:59	1	f.flache	22	1509	3
090613	11:59	1	f.lool	23	1990	5
090613	11:59	1	f.yafe	24	1340	4
090613	11:59	1	f.dwome	25	1228	4
090613	11:59	1	f.chode	26	1921	5
090613	11:59	1	f.smool	27	2152	4
090613	11:59	1	f.fleesh	28	2697	5
090613	11:59	1	f.glase	29	1619	5
090613	11:59	1	f.breer	30	2776	5
090613	11:59	1	f.throde	31	1069	4
090613	11:59	1	f.gwooze	32	1568	4
090613	11:59	1	f.thole	33	888	4
090613	11:59	1	f.yope	34	3658	4
090613	11:59	1	f.twoom	35	1918	4
090613	11:59	1	f.kwove	36	1687	3
090613	11:59	1	f.tweef	37	1346	3
090613	11:59	1	f.doche	38	2721	3
090613	11:59	1	f.smeeg	39	1738	3
090613	11:59	1	f.snathe	40	2683	4
090613	11:59	1	f.dwoog	41	1692	4
090613	11:59	1	f.twoche	42	1367	4
090613	11:59	1	f.voge	43	1717	5
090613	11:59	1	f.kloop	44	1061	4
090613	11:59	1	f.shrave	45	1056	4
090613	11:59	1	f.skabe	46	1611	3
090613	11:59	1	f.gweek	47	1113	3
090613	11:59	1	f.dwoose	48	3297	4
090613	11:59	1	f.gware	49	1195	4
090613	11:59	1	f.trage	50	3888	4
090613	11:59	1	f.spape	51	1587	4
090613	11:59	1	f.throod	52	1482	5
090613	11:59	1	f.jobe	53	1997	5
090613	11:59	1	f.floog	54	1163	4
090613	11:59	1	f.thoot	55	1601	5
090613	11:59	1	f.plage	56	2143	5
090613	11:59	1	f.yeeve	57	1574	4
090613	11:59	1	f.kroge	58	3124	5
090613	11:59	1	f.lashe	59	6495	5
090613	11:59	1	f.bleef	60	6393	4
090613	11:59	1	howtype	1	9040	6
090613	12:27	1	speed	1	5716	41
090613	12:27	1	error	2	2630	97
090613	12:27	1	whichhand	3	8763	right
090613	12:27	1	r.blond	1	9062	7
090613	12:27	1	r.startled	2	5611	3
090613	12:27	1	r.mantel	3	3674	5
090613	12:27	1	r.loneliness	4	4389	1
090613	12:27	1	r.contempt	5	2772	7
090613	12:27	1	r.immoral	6	4875	3
090613	12:27	1	r.gripe	7	5367	3
090613	12:27	1	r.gentle	8	3279	7
090613	12:27	1	r.miracle	9	5626	8
090613	12:27	1	r.shamed	10	2343	2
090613	12:27	1	r.devoted	11	2959	7
090613	12:27	1	r.dove	12	4310	6
090613	12:27	1	r.shark	13	5288	3
090613	12:27	1	r.quarrel	14	2883	2
090613	12:27	1	r.stove	15	2510	5
090613	12:27	1	r.scum	16	2999	2
090613	12:27	1	r.obey	17	4477	3
090613	12:27	1	r.radiant	18	2609	7
090613	12:27	1	r.butter	19	4366	5
090613	12:27	1	r.python	20	3166	3
090613	12:27	1	r.pig	21	2293	3
090613	12:27	1	r.cemetery	22	3383	3
090613	12:27	1	r.derelict	23	5278	5
090613	12:27	1	r.easygoing	24	2033	6
090613	12:27	1	r.hamburger	25	2110	5
090613	12:27	1	r.irritate	26	2215	3
090613	12:27	1	r.sour	27	1556	3
090613	12:27	1	r.appliance	28	2124	5
090613	12:27	1	r.scorn	29	3060	3
090613	12:27	1	r.present	30	4504	6
090613	12:27	1	r.accident	31	2114	4
090613	12:27	1	r.bride	32	3291	7
090613	12:27	1	r.natural	33	2974	5
090613	12:27	1	r.troubled	34	3269	4
090613	12:27	1	r.abundance	35	5745	5
090613	12:27	1	r.priest	36	3858	6
090613	12:27	1	r.vandal	37	4926	4
090613	12:27	1	r.blue	38	4023	6
090613	12:27	1	r.fish	39	3348	5
090613	12:27	1	r.knife	40	3933	4
090613	12:27	1	r.coffin	41	2086	3
090613	12:27	1	r.rotten	42	2264	4
090613	12:27	1	r.patriot	43	3396	6
090613	12:27	1	r.skijump	44	4249	5
090613	12:27	1	r.frustrated	45	2310	2
090613	12:27	1	r.thorn	46	1791	4
090613	12:27	1	r.snob	47	3125	4
090613	12:27	1	r.joyful	48	2446	8
090613	12:27	1	r.excuse	49	5090	4
090613	12:27	1	r.burdened	50	1645	3
090613	12:27	1	r.champion	51	2497	9
090613	12:27	1	r.anxious	52	3115	2
090613	12:27	1	r.tease	53	2972	2
090613	12:27	1	r.elevator	54	1811	5
090613	12:27	1	r.tool	55	1408	5
090613	12:27	1	r.noose	56	2326	2
090613	12:27	1	r.vehicle	57	2006	5
090613	12:27	1	r.infatuation	58	7292	6
090613	12:27	1	r.hawk	59	2896	5
090613	12:27	1	r.basket	60	2609	5
090613	12:27	1	f.yeen	1	6301	5
090613	12:27	1	f.dwoose	2	6008	6
090613	12:27	1	f.greesh	3	4855	6
090613	12:27	1	f.dwague	4	2699	3
090613	12:27	1	f.zoot	5	3981	5
090613	12:27	1	f.neef	6	4436	6
090613	12:27	1	f.thwague	7	2689	4
090613	12:27	1	f.twome	8	3428	3
090613	12:27	1	f.spage	9	3121	4
090613	12:27	1	f.swogue	10	5378	4
090613	12:27	1	f.plofe	11	3697	5
090613	12:27	1	f.dathe	12	2276	6
090613	12:27	1	f.kloob	13	4622	5
090613	12:27	1	f.drobe	14	3372	4
090613	12:27	1	f.thrape	15	3203	3
090613	12:27	1	f.plave	16	4409	6
090613	12:27	1	f.nooch	17	4223	5
090613	12:27	1	f.shoche	18	5893	4
090613	12:27	1	f.ploge	19	5008	4
090613	12:27	1	f.blofe	20	3023	4
090613	12:27	1	f.vove	21	5132	6
090613	12:27	1	f.frofe	22	1973	6
090613	12:27	1	f.klood	23	2108	3
090613	12:27	1	f.vook	24	2862	5
090613	12:27	1	f.spooge	25	3449	6
090613	12:27	1	f.stoob	26	2165	4
090613	12:27	1	f.snoosh	27	5508	6
090613	12:27	1	f.theen	28	3351	5
090613	12:27	1	f.yeet	29	3055	5
090613	12:27	1	f.swache	30	4331	5
090613	12:27	1	f.gloof	31	2204	6
090613	12:27	1	f.kwooge	32	1674	4
090613	12:27	1	f.glake	33	4645	5
090613	12:27	1	f.trofe	34	3865	3
090613	12:27	1	f.vooge	35	1973	5
090613	12:27	1	f.smoon	36	3884	7
090613	12:27	1	f.zove	37	2463	5
090613	12:27	1	f.jooch	38	2090	5
090613	12:27	1	f.skooth	39	2812	4
090613	12:27	1	f.troke	40	3233	5
090613	12:27	1	f.shrote	41	3254	5
090613	12:27	1	f.krooth	42	2490	3
090613	12:27	1	f.gweek	43	2365	6
090613	12:27	1	f.smothe	44	4964	4
090613	12:27	1	f.skeeb	45	2731	5
090613	12:27	1	f.dweesh	46	4076	6
090613	12:27	1	f.gwoshe	47	3023	5
090613	12:27	1	f.noshe	48	5725	5
090613	12:27	1	f.smafe	49	3206	6
090613	12:27	1	f.flathe	50	6116	6
090613	12:27	1	f.shrofe	51	2511	5
090613	12:27	1	f.speeb	52	5024	4
090613	12:27	1	f.greer	53	3270	5
090613	12:27	1	f.gwobe	54	6337	5
090613	12:27	1	f.sneen	55	2115	3
090613	12:27	1	f.proop	56	3348	5
090613	12:27	1	f.dwoom	57	2484	3
090613	12:27	1	f.thote	58	3119	6
090613	12:27	1	f.krabe	59	3376	4
090613	12:27	1	f.spashe	60	2375	6
090613	12:27	1	howtype	1	16101	6
090613	12:58	1	speed	1	3387	39
090613	12:58	1	error	2	2964	94
090613	12:58	1	whichhand	3	22924	with Cap letter
090613	12:58	1	f.soob	1	5860	5
090613	12:58	1	f.kwave	2	5017	7
090613	12:58	1	f.gwose	3	3511	5
090613	12:58	1	f.gwabe	4	7272	2
090613	12:58	1	f.flooth	5	3293	7
090613	12:58	1	f.stogue	6	2343	5
090613	12:58	1	f.smeed	7	6023	7
090613	12:58	1	f.lool	8	2517	9
090613	12:58	1	f.thweet	9	4694	9
090613	12:58	1	f.joob	10	4521	4
090613	12:58	1	f.peesh	11	4875	6
090613	12:58	1	f.freesh	12	2798	8
090613	12:58	1	f.slofe	13	3948	3
090613	12:58	1	f.thwoche	14	3893	7
090613	12:58	1	f.toove	15	6279	2
090613	12:58	1	f.sweese	16	3130	7
090613	12:58	1	f.sleesh	17	2731	1
090613	12:58	1	f.shrafe	18	1500	9
090613	12:58	1	f.shoche	19	1261	5
090613	12:58	1	f.skooth	20	2136	3
090613	12:58	1	f.thweege	21	1456	6
090613	12:58	1	f.thoog	22	1596	7
090613	12:58	1	f.dreech	23	1481	4
090613	12:58	1	f.tware	24	2179	3
090613	12:58	1	f.trome	25	2626	5
090613	12:58	1	f.veeve	26	3694	7
090613	12:58	1	f.thweem	27	2009	4
090613	12:58	1	f.trooge	28	1919	8
090613	12:58	1	f.dwooge	29	991	5
090613	12:58	1	f.throol	30	1405	5
090613	12:58	1	f.spoove	31	1875	7
090613	12:58	1	f.dobe	32	1550	2
090613	12:58	1	f.groche	33	1405	8
090613	12:58	1	f.swool	34	1419	7
090613	12:58	1	f.brape	35	1208	9
090613	12:58	1	f.shrogue	36	965	6
090613	12:58	1	f.thooth	37	1244	7
090613	12:58	1	f.snoob	38	2327	2
090613	12:58	1	f.wathe	39	1648	5
090613	12:58	1	f.kwape	40	1339	5
090613	12:58	1	f.pleech	41	3003	7
090613	12:58	1	f.yabe	42	1913	9
090613	12:58	1	f.breesh	43	1706	3
090613	12:58	1	f.thook	44	1956	4
090613	12:58	1	f.voof	45	1435	5
090613	12:58	1	f.spage	46	1520	6
090613	12:58	1	f.snane	47	1097	7
090613	12:58	1	f.jame	48	1634	8
090613	12:58	1	f.boosh	49	1886	3
090613	12:58	1	f.groob	50	3073	2
090613	12:58	1	f.jothe	51	1324	5
090613	12:58	1	f.kwague	52	949	6
090613	12:58	1	f.tweeth	53	1132	7
090613	12:58	1	f.sweel	54	1132	8
090613	12:58	1	f.zooge	55	972	7
090613	12:58	1	f.vage	56	1459	6
090613	12:58	1	f.drothe	57	2118	5
090613	12:58	1	f.blathe	58	575	5
090613	12:58	1	f.smose	59	2222	3
090613	12:58	1	f.spoog	60	6643	8
090613	12:58	1	r.caress	1	4602	9
090613	12:58	1	r.cook	2	1985	8
090613	12:58	1	r.sinful	3	2503	5
090613	12:58	1	r.people	4	3129	6
090613	12:58	1	r.penis	5	5474	7
090613	12:58	1	r.health	6	4446	8
090613	12:58	1	r.icebox	7	2842	9
090613	12:58	1	r.blase	8	2414	5
090613	12:58	1	r.politeness	9	4899	5
090613	12:58	1	r.frigid	10	1598	7
090613	12:58	1	r.tomb	11	2820	1
090613	12:58	1	r.cockroach	12	2617	1
090613	12:58	1	r.hell	13	1070	1
090613	12:58	1	r.mind	14	1952	5
090613	12:58	1	r.bold	15	3816	5
090613	12:58	1	r.justice	16	1846	5
090613	12:58	1	r.regretful	17	3858	1
090613	12:58	1	r.urine	18	2006	3
090613	12:58	1	r.unit	19	1348	5
090613	12:58	1	r.terrific	20	1987	9
090613	12:58	1	r.gift	21	1586	9
090613	12:58	1	r.fireworks	22	1839	8
090613	12:58	1	r.snuggle	23	2028	5
090613	12:58	1	r.outstanding	24	1768	9
090613	12:58	1	r.hit	25	2431	5
090613	12:58	1	r.statue	26	1540	5
090613	12:58	1	r.rancid	27	892	5
090613	12:58	1	r.crushed	28	2438	1
090613	12:58	1	r.youth	29	1506	6
090613	12:58	1	r.dustpan	30	2204	4
090613	12:58	1	r.mold	31	986	5
090613	12:58	1	r.party	32	1976	9
090613	12:58	1	r.stove	33	1055	5
090613	12:58	1	r.execution	34	2306	1
090613	12:58	1	r.cash	35	1924	9
090613	12:58	1	r.feeble	36	1573	5
090613	12:58	1	r.thrill	37	3476	1
090613	12:58	1	r.yellow	38	2214	7
090613	12:58	1	r.door	39	1387	6
090613	12:58	1	r.triumphant	40	1314	3
090613	12:58	1	r.curtains	41	970	2
090613	12:58	1	r.unhappy	42	3209	1
090613	12:58	1	r.famous	43	2390	9
090613	12:58	1	r.coward	44	2077	3
090613	12:58	1	r.sapphire	45	1663	5
090613	12:58	1	r.filth	46	1018	5
090613	12:58	1	r.tank	47	1831	4
090613	12:58	1	r.annoy	48	1963	2
090613	12:58	1	r.solemn	49	1058	5
090613	12:58	1	r.kiss	50	1710	8
090613	12:58	1	r.decorate	51	3190	5
090613	12:58	1	r.hide	52	1277	4
090613	12:58	1	r.bar	53	1471	7
090613	12:58	1	r.invader	54	1258	5
090613	12:58	1	r.volcano	55	2549	3
090613	12:58	1	r.restaurant	56	1797	7
090613	12:58	1	r.bland	57	1307	5
090613	12:58	1	r.danger	58	1868	2
090613	12:58	1	r.pretty	59	4351	8
090613	12:58	1	r.overwhelmed	60	2376	5
090613	12:58	1	howtype	1	16012	6
090613	15:00	1	speed	1	3376	48
090613	15:00	1	error	2	2603	93
090613	15:00	1	whichhand	3	19657	right
090613	15:00	1	f.shreese	1	9621	4
090613	15:00	1	f.neef	2	3405	3
090613	15:00	1	f.kweeze	3	4819	4
090613	15:00	1	f.froove	4	2449	2
090613	15:00	1	f.shroor	5	2909	1
090613	15:00	1	f.treek	6	2622	2
090613	15:00	1	f.skoog	7	4275	2
090613	15:00	1	f.yape	8	2686	4
090613	15:00	1	f.kloop	9	2561	5
090613	15:00	1	f.proom	10	3272	5
090613	15:00	1	f.skathe	11	1988	6
090613	15:00	1	f.slode	12	2506	4
090613	15:00	1	f.slale	13	2236	2
090613	15:00	1	f.yave	14	2224	3
090613	15:00	1	f.kroor	15	2277	1
090613	15:00	1	f.dreeze	16	2376	5
090613	15:00	1	f.skafe	17	2918	6
090613	15:00	1	f.moosh	18	2272	7
090613	15:00	1	f.shrooch	19	2795	4
090613	15:00	1	f.shroove	20	3105	4
090613	15:00	1	f.yooch	21	1843	6
090613	15:00	1	f.dweeve	22	2046	5
090613	15:00	1	f.kroog	23	1954	6
090613	15:00	1	f.flobe	24	1697	6
090613	15:00	1	f.brope	25	2899	5
090613	15:00	1	f.yope	26	1829	6
090613	15:00	1	f.flashe	27	2169	8
090613	15:00	1	f.greech	28	2297	6
090613	15:00	1	f.shreeth	29	1946	7
090613	15:00	1	f.feeb	30	2986	5
090613	15:00	1	f.yase	31	1681	5
090613	15:00	1	f.blole	32	2291	3
090613	15:00	1	f.thape	33	1389	5
090613	15:00	1	f.mothe	34	2107	6
090613	15:00	1	f.gleese	35	1445	6
090613	15:00	1	f.dween	36	1569	5
090613	15:00	1	f.yoon	37	2015	8
090613	15:00	1	f.broor	38	1669	5
090613	15:00	1	f.trome	39	1807	6
090613	15:00	1	f.slool	40	1781	4
090613	15:00	1	f.flague	41	1971	8
090613	15:00	1	f.theege	42	1882	5
090613	15:00	1	f.zeep	43	1557	8
090613	15:00	1	f.drage	44	1540	5
090613	15:00	1	f.choge	45	3732	3
090613	15:00	1	f.throme	46	3437	6
090613	15:00	1	f.prook	47	1266	5
090613	15:00	1	f.proop	48	2581	6
090613	15:00	1	f.spoog	49	1779	6
090613	15:00	1	f.swoche	50	2082	2
090613	15:00	1	f.twobe	51	2372	6
090613	15:00	1	f.pooth	52	1443	5
090613	15:00	1	f.poob	53	1838	6
090613	15:00	1	f.yoop	54	1459	6
090613	15:00	1	f.thrare	55	1510	2
090613	15:00	1	f.dathe	56	1599	6
090613	15:00	1	f.klabe	57	1885	4
090613	15:00	1	f.thwoge	58	3247	3
090613	15:00	1	f.gwane	59	2235	6
090613	15:00	1	f.gwoge	60	1928	3
090613	15:00	1	r.sin	1	4475	1
090613	15:00	1	r.spirit	2	2543	9
090613	15:00	1	r.paradise	3	2070	9
090613	15:00	1	r.boy	4	3521	7
090613	15:00	1	r.pride	5	3499	7
090613	15:00	1	r.punishment	6	2485	3
090613	15:00	1	r.patient	7	2111	5
090613	15:00	1	r.ambition	8	2816	5
090613	15:00	1	r.frog	9	1918	4
090613	15:00	1	r.lantern	10	2735	6
090613	15:00	1	r.dinner	11	2535	9
090613	15:00	1	r.lost	12	2176	4
090613	15:00	1	r.infatuation	13	2854	4
090613	15:00	1	r.weary	14	2658	5
090613	15:00	1	r.slush	15	2654	3
090613	15:00	1	r.nasty	16	1826	1
090613	15:00	1	r.cat	17	1502	1
090613	15:00	1	r.radio	18	1720	9
090613	15:00	1	r.plant	19	2257	7
090613	15:00	1	r.dustpan	20	2532	2
090613	15:00	1	r.fungus	21	1396	1
090613	15:00	1	r.scared	22	2994	3
090613	15:00	1	r.merry	23	2000	9
090613	15:00	1	r.black	24	2022	5
090613	15:00	1	r.opinion	25	1955	5
090613	15:00	1	r.lottery	26	1883	8
090613	15:00	1	r.palace	27	2301	6
090613	15:00	1	r.scornful	28	2063	2
090613	15:00	1	r.messy	29	2010	3
090613	15:00	1	r.taxi	30	1671	5
090613	15:00	1	r.world	31	1618	5
090613	15:00	1	r.pet	32	1903	4
090613	15:00	1	r.alimony	33	1921	1
090613	15:00	1	r.star	34	1601	9
090613	15:00	1	r.field	35	1959	6
090613	15:00	1	r.clock	36	2071	4
090613	15:00	1	r.doll	37	2058	2
090613	15:00	1	r.key	38	1805	6
090613	15:00	1	r.manure	39	1827	2
090613	15:00	1	r.pillow	40	1959	8
090613	15:00	1	r.scum	41	1462	2
090613	15:00	1	r.happy	42	1953	8
090613	15:00	1	r.office	43	1561	5
090613	15:00	1	r.sleep	44	1648	9
090613	15:00	1	r.annoy	45	1587	2
090613	15:00	1	r.haphazard	46	1889	3
090613	15:00	1	r.bastard	47	1412	1
090613	15:00	1	r.prairie	48	1753	6
090613	15:00	1	r.pamphlet	49	1632	5
090613	15:00	1	r.circus	50	1764	8
090613	15:00	1	r.slow	51	1803	2
090613	15:00	1	r.tornado	52	2017	1
090613	15:00	1	r.cord	53	1358	5
090613	15:00	1	r.jug	54	1589	5
090613	15:00	1	r.dummy	55	2171	3
090613	15:00	1	r.pizza	56	1475	8
090613	15:00	1	r.flower	57	1341	8
090613	15:00	1	r.tragedy	58	1390	2
090613	15:00	1	r.needle	59	1772	2
090613	15:00	1	r.game	60	1851	7
090613	15:00	1	howtype	1	8157	5
090613	15:26	1	speed	1	3385	47
090613	15:26	1	error	2	2830	91
090613	15:26	1	whichhand	3	7387	right
090613	15:26	1	f.gwashe	1	6640	5
090613	15:26	1	f.prooch	2	6005	4
090613	15:26	1	f.zoot	3	3428	7
090613	15:26	1	f.thwoze	4	3681	8
090613	15:26	1	f.trabe	5	5268	8
090613	15:26	1	f.gleek	6	4456	3
090613	15:26	1	f.thrare	7	5965	6
090613	15:26	1	f.trache	8	3573	5
090613	15:26	1	f.boshe	9	3868	7
090613	15:26	1	f.shrabe	10	3744	8
090613	15:26	1	f.neech	11	3280	3
090613	15:26	1	f.sneeve	12	2987	3
090613	15:26	1	f.voke	13	4666	8
090613	15:26	1	f.peesh	14	2733	2
090613	15:26	1	f.frage	15	3382	8
090613	15:26	1	f.skoosh	16	4605	4
090613	15:26	1	f.gleesh	17	2715	4
090613	15:26	1	f.glache	18	4781	8
090613	15:26	1	f.zeet	19	2444	5
090613	15:26	1	f.plore	20	6400	7
090613	15:26	1	f.thate	21	5239	7
090613	15:26	1	f.threeth	22	3748	6
090613	15:26	1	f.smeeth	23	2900	3
090613	15:26	1	f.slashe	24	6294	9
090613	15:26	1	f.shrole	25	4074	8
090613	15:26	1	f.teeg	26	2317	3
090613	15:26	1	f.wache	27	3534	7
090613	15:26	1	f.threek	28	5239	6
090613	15:26	1	f.gleech	29	4525	2
090613	15:26	1	f.zave	30	3118	8
090613	15:26	1	f.thook	31	2944	5
090613	15:26	1	f.freech	32	3360	2
090613	15:26	1	f.fleesh	33	1807	2
090613	15:26	1	f.klogue	34	4989	3
090613	15:26	1	f.kweep	35	2804	4
090613	15:26	1	f.froob	36	2578	4
090613	15:26	1	f.zoog	37	1760	4
090613	15:26	1	f.speep	38	4248	5
090613	15:26	1	f.kwaze	39	2596	6
090613	15:26	1	f.chabe	40	2666	6
090613	15:26	1	f.kreer	41	3101	6
090613	15:26	1	f.swobe	42	4879	6
090613	15:26	1	f.zeeve	43	2810	5
090613	15:26	1	f.shrane	44	2984	8
090613	15:26	1	f.shreen	45	2814	7
090613	15:26	1	f.kwogue	46	5059	6
090613	15:26	1	f.thwoot	47	3503	4
090613	15:26	1	f.steeb	48	3938	6
090613	15:26	1	f.jogue	49	3835	7
090613	15:26	1	f.smooze	50	6232	3
090613	15:26	1	f.smoof	51	1629	3
090613	15:26	1	f.droog	52	2810	2
090613	15:26	1	f.zeek	53	1887	3
090613	15:26	1	f.flooth	54	4049	1
090613	15:26	1	f.krogue	55	2990	7
090613	15:26	1	f.gwofe	56	2820	6
090613	15:26	1	f.smeep	57	3370	3
090613	15:26	1	f.bogue	58	4753	9
090613	15:26	1	f.throthe	59	2538	8
090613	15:26	1	f.ploge	60	4426	7
090613	15:26	1	r.cabinet	1	6488	8
090613	15:26	1	r.grenade	2	3604	8
090613	15:26	1	r.orchestra	3	3970	9
090613	15:26	1	r.rescue	4	4530	9
090613	15:26	1	r.applause	5	5067	8
090613	15:26	1	r.obscene	6	4199	3
090613	15:26	1	r.knowledge	7	3725	7
090613	15:26	1	r.engine	8	2990	9
090613	15:26	1	r.python	9	5133	9
090613	15:26	1	r.cyclone	10	5366	8
090613	15:26	1	r.icebox	11	3798	6
090613	15:26	1	r.travel	12	3237	8
090613	15:26	1	r.honor	13	2881	8
090613	15:26	1	r.scalding	14	4404	2
090613	15:26	1	r.lawsuit	15	3546	2
090613	15:26	1	r.overwhelmed	16	2283	2
090613	15:26	1	r.cord	17	3653	5
090613	15:26	1	r.man	18	6137	8
090613	15:26	1	r.shadow	19	8907	7
090613	15:26	1	r.palace	20	3158	9
090613	15:26	1	r.warmth	21	2086	9
090613	15:26	1	r.air	22	2225	8
090613	15:26	1	r.flood	23	5598	4
090613	15:26	1	r.FALSE	24	5204	5
090613	15:26	1	r.crown	25	3835	7
090613	15:26	1	r.slime	26	3368	1
090613	15:26	1	r.freedom	27	3688	9
090613	15:26	1	r.silly	28	3827	6
090613	15:26	1	r.rusty	29	4047	3
090613	15:26	1	r.nourish	30	4716	9
090613	15:26	1	r.farm	31	4614	8
090613	15:26	1	r.misery	32	2555	1
090613	15:26	1	r.hammer	33	6443	8
090613	15:26	1	r.square	34	2985	5
090613	15:26	1	r.body	35	4799	8
090613	15:26	1	r.naked	36	3910	7
090613	15:26	1	r.muffin	37	3471	7
090613	15:26	1	r.identity	38	3699	7
090613	15:26	1	r.hate	39	7477	5
090613	15:26	1	r.astonished	40	2945	7
090613	15:26	1	r.hay	41	2401	5
090613	15:26	1	r.madman	42	4687	5
090613	15:26	1	r.pizza	43	3026	7
090613	15:26	1	r.odd	44	2527	4
090613	15:26	1	r.rude	45	4488	4
090613	15:26	1	r.war	46	3499	6
090613	15:26	1	r.razor	47	5837	8
090613	15:26	1	r.bird	48	5818	8
090613	15:26	1	r.victory	49	2465	9
090613	15:26	1	r.natural	50	2068	8
090613	15:26	1	r.coarse	51	4135	4
090613	15:26	1	r.unfaithful	52	2480	3
090613	15:26	1	r.truth	53	2690	7
090613	15:26	1	r.hit	54	5205	8
090613	15:26	1	r.cold	55	3292	2
090613	15:26	1	r.lamb	56	4318	4
090613	15:26	1	r.mountain	57	3072	7
090613	15:26	1	r.yacht	58	2170	7
090613	15:26	1	r.hungry	59	4547	3
090613	15:26	1	r.treasure	60	3603	9
090613	15:26	1	howtype	1	13616	7
090913	10:04	2	speed	1	9729	43
090913	10:04	2	error	2	3461	100
090913	10:04	2	whichhand	3	32986	right
090913	10:04	2	r.champion	1	15478	8
090913	10:04	2	r.naked	2	4566	5
090913	10:04	2	r.bold	3	4101	7
090913	10:04	2	r.treasure	4	1272	7
090913	10:04	2	r.affection	5	2123	9
090913	10:04	2	r.ankle	6	2348	5
090913	10:04	2	r.upset	7	2452	3
090913	10:04	2	r.air	8	2703	6
090913	10:04	2	r.quart	9	4425	5
090913	10:04	2	r.regretful	10	2398	4
090913	10:04	2	r.woman	11	2036	9
090913	10:04	2	r.knot	12	1648	5
090913	10:04	2	r.tree	13	2636	5
090913	10:04	2	r.scholar	14	2296	8
090913	10:04	2	r.virtue	15	1858	9
090913	10:04	2	r.consoled	16	6374	6
090913	10:04	2	r.funeral	17	2006	5
090913	10:04	2	r.power	18	2460	8
090913	10:04	2	r.rude	19	1911	5
090913	10:04	2	r.unfaithful	20	1720	3
090913	10:04	2	r.curtains	21	2001	5
090913	10:04	2	r.red	22	3567	6
090913	10:04	2	r.erotic	23	1662	5
090913	10:04	2	r.kindness	24	1481	9
090913	10:04	2	r.syphilis	25	2427	3
090913	10:04	2	r.eat	26	2680	8
090913	10:04	2	r.hurricane	27	2914	5
090913	10:04	2	r.cruel	28	2564	6
090913	10:04	2	r.bored	29	2827	4
090913	10:04	2	r.stress	30	1607	4
090913	10:04	2	r.friend	31	2381	8
090913	10:04	2	r.miracle	32	2916	9
090913	10:04	2	r.twilight	33	1973	8
090913	10:04	2	r.betray	34	4964	4
090913	10:04	2	r.lust	35	1588	4
090913	10:04	2	r.lavish	36	2162	4
090913	10:04	2	r.queen	37	1841	6
090913	10:04	2	r.bird	38	1621	6
090913	10:04	2	r.tomb	39	1866	4
090913	10:04	2	r.lie	40	1573	3
090913	10:04	2	r.metal	41	2524	4
090913	10:04	2	r.museum	42	2757	6
090913	10:04	2	r.tool	43	1029	6
090913	10:04	2	r.freedom	44	14377	7
090913	10:04	2	r.detest	45	3267	4
090913	10:04	2	r.alert	46	1559	3
090913	10:04	2	r.rain	47	2503	6
090913	10:04	2	r.infatuation	48	3272	4
090913	10:04	2	r.letter	49	1788	5
090913	10:04	2	r.detached	50	2050	4
090913	10:04	2	r.food	51	2150	7
090913	10:04	2	r.poster	52	2414	6
090913	10:04	2	r.vehicle	53	1730	6
090913	10:04	2	r.diamond	54	1971	7
090913	10:04	2	r.yellow	55	1922	6
090913	10:04	2	r.passage	56	3147	5
090913	10:04	2	r.paper	57	2571	6
090913	10:04	2	r.muscular	58	2682	8
090913	10:04	2	r.valentine	59	2949	8
090913	10:04	2	r.panic	60	1613	5
090913	10:04	2	f.kwoom	1	5662	5
090913	10:04	2	f.prooth	2	2010	4
090913	10:04	2	f.plooge	3	2583	6
090913	10:04	2	f.smeeve	4	2006	6
090913	10:04	2	f.dwate	5	2067	6
090913	10:04	2	f.thwoosh	6	2694	7
090913	10:04	2	f.kweem	7	3384	7
090913	10:04	2	f.bleeth	8	4743	6
090913	10:04	2	f.thweeth	9	3592	5
090913	10:04	2	f.snashe	10	2335	7
090913	10:04	2	f.cheege	11	1151	7
090913	10:04	2	f.thwole	12	2439	6
090913	10:04	2	f.zoge	13	1819	7
090913	10:04	2	f.vafe	14	2376	5
090913	10:04	2	f.slache	15	4078	7
090913	10:04	2	f.fogue	16	6361	5
090913	10:04	2	f.breesh	17	2281	5
090913	10:04	2	f.plothe	18	1692	4
090913	10:04	2	f.skoosh	19	2566	7
090913	10:04	2	f.kreege	20	8733	6
090913	10:04	2	f.dofe	21	1816	5
090913	10:04	2	f.nooth	22	1797	6
090913	10:04	2	f.bloof	23	1443	4
090913	10:04	2	f.drofe	24	1239	6
090913	10:04	2	f.shrare	25	2187	7
090913	10:04	2	f.kroob	26	3961	6
090913	10:04	2	f.mabe	27	3969	7
090913	10:04	2	f.gloshe	28	2049	7
090913	10:04	2	f.preet	29	10212	6
090913	10:04	2	f.zare	30	14980	5
090913	10:04	2	f.dweege	31	1750	6
090913	10:04	2	f.tweege	32	2654	6
090913	10:04	2	f.kwobe	33	1050	6
090913	10:04	2	f.stooch	34	1861	7
090913	10:04	2	f.bloshe	35	2160	7
090913	10:04	2	f.stofe	36	4719	6
090913	10:04	2	f.speeve	37	1505	7
090913	10:04	2	f.dwooge	38	1195	7
090913	10:04	2	f.thwoose	39	1384	7
090913	10:04	2	f.dwook	40	2254	6
090913	10:04	2	f.thoog	41	2562	7
090913	10:04	2	f.trabe	42	4297	4
090913	10:04	2	f.prathe	43	2108	4
090913	10:04	2	f.proosh	44	1445	4
090913	10:04	2	f.smoon	45	2105	5
090913	10:04	2	f.flape	46	5163	7
090913	10:04	2	f.theet	47	1787	6
090913	10:04	2	f.moof	48	1585	6
090913	10:04	2	f.loche	49	1575	6
090913	10:04	2	f.blague	50	2086	7
090913	10:04	2	f.bloosh	51	1264	7
090913	10:04	2	f.grague	52	2891	7
090913	10:04	2	f.freeth	53	4982	6
090913	10:04	2	f.dwoop	54	15997	5
090913	10:04	2	f.stashe	55	879	5
090913	10:04	2	f.snache	56	1385	6
090913	10:04	2	f.spoom	57	1263	6
090913	10:04	2	f.shrobe	58	3714	7
090913	10:04	2	f.feech	59	1444	7
090913	10:04	2	f.kreer	60	5359	5
090913	10:04	2	howtype	1	23310	6
091013	09:02	1	speed	1	6198	72
091013	09:02	1	error	2	3926	94
091013	09:02	1	whichhand	3	8368	Right
091013	09:02	1	f.sweel	1	14512	6
091013	09:02	1	f.smode	2	2110	4
091013	09:02	1	f.throoge	3	2607	5
091013	09:02	1	f.shreesh	4	2309	3
091013	09:02	1	f.kwoosh	5	1462	2
091013	09:02	1	f.shreeg	6	1417	3
091013	09:02	1	f.frague	7	1750	6
091013	09:02	1	f.kweese	8	1245	4
091013	09:02	1	f.kwose	9	1113	3
091013	09:02	1	f.mafe	10	2986	7
091013	09:02	1	f.shrome	11	1544	8
091013	09:02	1	f.joob	12	1640	9
091013	09:02	1	f.spave	13	1180	9
091013	09:02	1	f.dreeth	14	2498	7
091013	09:02	1	f.neeth	15	2636	6
091013	09:02	1	f.sloge	16	1976	4
091013	09:02	1	f.skeeb	17	1935	3
091013	09:02	1	f.prole	18	1231	3
091013	09:02	1	f.prool	19	2027	4
091013	09:02	1	f.breer	20	1864	4
091013	09:02	1	f.skoob	21	2011	3
091013	09:02	1	f.weech	22	974	3
091013	09:02	1	f.smeef	23	1180	3
091013	09:02	1	f.zoge	24	1122	3
091013	09:02	1	f.shreel	25	3099	4
091013	09:02	1	f.shrooth	26	1909	3
091013	09:02	1	f.beeve	27	1797	7
091013	09:02	1	f.fleeb	28	2067	3
091013	09:02	1	f.thwose	29	3838	5
091013	09:02	1	f.zeeg	30	2347	3
091013	09:02	1	f.smeese	31	2283	7
091013	09:02	1	f.sneege	32	2653	6
091013	09:02	1	f.smose	33	2593	7
091013	09:02	1	f.kwashe	34	1503	3
091013	09:02	1	f.throshe	35	888	3
091013	09:02	1	f.snoog	36	795	3
091013	09:02	1	f.gwoche	37	1816	4
091013	09:02	1	f.flobe	38	2053	6
091013	09:02	1	f.dwoosh	39	1585	4
091013	09:02	1	f.thwome	40	2806	3
091013	09:02	1	f.thwathe	41	1252	4
091013	09:02	1	f.slague	42	2224	5
091013	09:02	1	f.twoom	43	3541	6
091013	09:02	1	f.thwoom	44	3326	6
091013	09:02	1	f.gweeve	45	3103	8
091013	09:02	1	f.swoze	46	1736	8
091013	09:02	1	f.doob	47	1417	9
091013	09:02	1	f.kwoob	48	1598	7
091013	09:02	1	f.poosh	49	1570	9
091013	09:02	1	f.prooge	50	2050	4
091013	09:02	1	f.thwane	51	1566	6
091013	09:02	1	f.swooth	52	1613	9
091013	09:02	1	f.thrale	53	2866	4
091013	09:02	1	f.grobe	54	2253	8
091013	09:02	1	f.frashe	55	1577	4
091013	09:02	1	f.gwoof	56	1143	4
091013	09:02	1	f.tware	57	1446	6
091013	09:02	1	f.broshe	58	1594	4
091013	09:02	1	f.tweem	59	1934	4
091013	09:02	1	f.nabe	60	1848	8
091013	09:02	1	r.snuggle	1	3885	9
091013	09:02	1	r.blase	2	3617	6
091013	09:02	1	r.cuisine	3	3438	4
091013	09:02	1	r.noose	4	2875	2
091013	09:02	1	r.outrage	5	1814	9
091013	09:02	1	r.grateful	6	1307	9
091013	09:02	1	r.breast	7	2691	4
091013	09:02	1	r.corridor	8	2294	2
091013	09:02	1	r.honest	9	2400	9
091013	09:02	1	r.warmth	10	1486	9
091013	09:02	1	r.beautiful	11	1704	9
091013	09:02	1	r.context	12	6993	9
091013	09:02	1	r.frigid	13	3473	6
091013	09:02	1	r.win	14	3932	4
091013	09:02	1	r.hurricane	15	3701	9
091013	09:02	1	r.wasp	16	4143	3
091013	09:02	1	r.ambition	17	2440	9
091013	09:02	1	r.garment	18	1444	4
091013	09:02	1	r.ache	19	2456	3
091013	09:02	1	r.muddy	20	2787	8
091013	09:02	1	r.startled	21	3946	5
091013	09:02	1	r.butter	22	2018	4
091013	09:02	1	r.loyal	23	1920	9
091013	09:02	1	r.teacher	24	1400	9
091013	09:02	1	r.revolt	25	2366	7
091013	09:02	1	r.gangrene	26	2621	3
091013	09:02	1	r.talent	27	3370	9
091013	09:02	1	r.treat	28	2578	9
091013	09:02	1	r.destruction	29	1400	9
091013	09:02	1	r.murderer	30	2054	2
091013	09:02	1	r.regretful	31	1881	9
091013	09:02	1	r.activate	32	1620	9
091013	09:02	1	r.medicine	33	1608	9
091013	09:02	1	r.mail	34	3694	6
091013	09:02	1	r.people	35	3496	6
091013	09:02	1	r.disloyal	36	3218	9
091013	09:02	1	r.door	37	3128	8
091013	09:02	1	r.quiet	38	4361	4
091013	09:02	1	r.agility	39	2104	9
091013	09:02	1	r.razor	40	3145	7
091013	09:02	1	r.rude	41	2634	9
091013	09:02	1	r.elbow	42	2671	9
091013	09:02	1	r.toy	43	2666	6
091013	09:02	1	r.king	44	2613	4
091013	09:02	1	r.hell	45	2594	9
091013	09:02	1	r.violent	46	984	9
091013	09:02	1	r.leisurely	47	1510	2
091013	09:02	1	r.sun	48	2847	6
091013	09:02	1	r.movie	49	1931	7
091013	09:02	1	r.hard	50	2699	4
091013	09:02	1	r.hatred	51	2517	4
091013	09:02	1	r.terrific	52	2319	4
091013	09:02	1	r.pencil	53	2951	3
091013	09:02	1	r.smallpox	54	5055	9
091013	09:02	1	r.cyclone	55	11236	5
091013	09:02	1	r.miracle	56	2116	9
091013	09:02	1	r.modest	57	1349	9
091013	09:02	1	r.fight	58	2988	9
091013	09:02	1	r.plane	59	3683	4
091013	09:02	1	r.clock	60	1574	6
091013	09:02	1	howtype	1	10411	7
091013	09:23	1	speed	1	3965	55
091013	09:23	1	error	2	3813	96
091013	09:23	1	whichhand	3	4539	right
091013	09:23	1	r.metal	1	4684	5
091013	09:23	1	r.barrel	2	1951	5
091013	09:23	1	r.fire	3	1967	5
091013	09:23	1	r.time	4	1998	7
091013	09:23	1	r.grateful	5	2148	7
091013	09:23	1	r.friendly	6	1395	8
091013	09:23	1	r.mischief	7	2881	5
091013	09:23	1	r.insect	8	2124	4
091013	09:23	1	r.fear	9	1589	4
091013	09:23	1	r.foot	10	1411	6
091013	09:23	1	r.lion	11	3112	7
091013	09:23	1	r.hairpin	12	1729	6
091013	09:23	1	r.pig	13	2257	4
091013	09:23	1	r.insecure	14	1461	4
091013	09:23	1	r.lively	15	1416	6
091013	09:23	1	r.phase	16	1277	5
091013	09:23	1	r.virgin	17	2319	5
091013	09:23	1	r.flower	18	1384	8
091013	09:23	1	r.slum	19	1422	2
091013	09:23	1	r.lost	20	1299	3
091013	09:23	1	r.kick	21	1068	4
091013	09:23	1	r.defiant	22	1871	3
091013	09:23	1	r.save	23	2138	5
091013	09:23	1	r.millionaire	24	2546	7
091013	09:23	1	r.office	25	1410	6
091013	09:23	1	r.earth	26	2407	8
091013	09:23	1	r.cheer	27	1261	7
091013	09:23	1	r.dress	28	2120	6
091013	09:23	1	r.bored	29	1457	4
091013	09:23	1	r.rabbit	30	1300	7
091013	09:23	1	r.ugly	31	2886	2
091013	09:23	1	r.depression	32	1080	2
091013	09:23	1	r.burn	33	1074	2
091013	09:23	1	r.mantel	34	2645	3
091013	09:23	1	r.suspicious	35	2169	2
091013	09:23	1	r.kiss	36	1416	6
091013	09:23	1	r.computer	37	1389	5
091013	09:23	1	r.book	38	1507	7
091013	09:23	1	r.green	39	2556	5
091013	09:23	1	r.embattled	40	1436	3
091013	09:23	1	r.venom	41	1408	2
091013	09:23	1	r.dignified	42	1430	6
091013	09:23	1	r.toy	43	1698	7
091013	09:23	1	r.bastard	44	1588	1
091013	09:23	1	r.riches	45	1450	4
091013	09:23	1	r.ignorance	46	1613	5
091013	09:23	1	r.wine	47	1442	7
091013	09:23	1	r.quart	48	1054	6
091013	09:23	1	r.fantasy	49	1338	6
091013	09:23	1	r.hope	50	1298	7
091013	09:23	1	r.scurvy	51	1140	2
091013	09:23	1	r.crash	52	1323	1
091013	09:23	1	r.war	53	1476	1
091013	09:23	1	r.hairdryer	54	1374	7
091013	09:23	1	r.flabby	55	1477	1
091013	09:23	1	r.medicine	56	1927	6
091013	09:23	1	r.game	57	1392	7
091013	09:23	1	r.glamour	58	1198	7
091013	09:23	1	r.immature	59	1219	3
091013	09:23	1	r.innocent	60	1176	5
091013	09:23	1	f.sloof	1	2062	4
091013	09:23	1	f.skase	2	993	4
091013	09:23	1	f.jame	3	1174	6
091013	09:23	1	f.snafe	4	1149	3
091013	09:23	1	f.shrool	5	660	3
091013	09:23	1	f.dwoshe	6	1615	2
091013	09:23	1	f.nage	7	1084	5
091013	09:23	1	f.roosh	8	2110	5
091013	09:23	1	f.sneege	9	1079	2
091013	09:23	1	f.zeep	10	2121	5
091013	09:23	1	f.kwave	11	2170	7
091013	09:23	1	f.dreet	12	2305	5
091013	09:23	1	f.zoog	13	1763	8
091013	09:23	1	f.skashe	14	1042	5
091013	09:23	1	f.wothe	15	1654	4
091013	09:23	1	f.zoshe	16	1001	5
091013	09:23	1	f.twame	17	1415	4
091013	09:23	1	f.prothe	18	1516	3
091013	09:23	1	f.swooze	19	1020	5
091013	09:23	1	f.skafe	20	1528	4
091013	09:23	1	f.swafe	21	1193	4
091013	09:23	1	f.dwake	22	2150	6
091013	09:23	1	f.thrathe	23	942	5
091013	09:23	1	f.shrole	24	959	4
091013	09:23	1	f.chage	25	1118	5
091013	09:23	1	f.brape	26	1046	4
091013	09:23	1	f.jashe	27	1306	4
091013	09:23	1	f.threech	28	987	5
091013	09:23	1	f.shrothe	29	1001	3
091013	09:23	1	f.foof	30	983	6
091013	09:23	1	f.flathe	31	1644	5
091013	09:23	1	f.leesh	32	1584	5
091013	09:23	1	f.sleese	33	2638	6
091013	09:23	1	f.freeg	34	955	6
091013	09:23	1	f.fofe	35	506	5
091013	09:23	1	f.thwoosh	36	1691	4
091013	09:23	1	f.neeth	37	1686	7
091013	09:23	1	f.shrogue	38	904	5
091013	09:23	1	f.freesh	39	785	5
091013	09:23	1	f.thathe	40	1399	3
091013	09:23	1	f.thate	41	1301	4
091013	09:23	1	f.shrame	42	1014	4
091013	09:23	1	f.speep	43	1403	5
091013	09:23	1	f.blofe	44	937	5
091013	09:23	1	f.slare	45	1720	2
091013	09:23	1	f.nabe	46	905	4
091013	09:23	1	f.smode	47	1379	3
091013	09:23	1	f.dwale	48	1545	4
091013	09:23	1	f.moof	49	784	5
091013	09:23	1	f.shroose	50	1022	2
091013	09:23	1	f.ploke	51	1011	4
091013	09:23	1	f.prache	52	3127	3
091013	09:23	1	f.pashe	53	976	4
091013	09:23	1	f.sleech	54	719	5
091013	09:23	1	f.shrague	55	903	5
091013	09:23	1	f.broob	56	1624	6
091013	09:23	1	f.skose	57	811	5
091013	09:23	1	f.sloshe	58	1018	5
091013	09:23	1	f.thweef	59	934	4
091013	09:23	1	f.preep	60	886	5
091013	09:23	1	howtype	1	8768	7
091013	11:56	1	speed	1	3421	83
091013	11:56	1	error	2	3773	96
091013	11:56	1	whichhand	3	4670	Right
091013	11:56	1	r.movie	1	10474	6
091013	11:56	1	r.jelly	2	3552	7
091013	11:56	1	r.ache	3	2560	3
091013	11:56	1	r.stress	4	3127	2
091013	11:56	1	r.church	5	5928	5
091013	11:56	1	r.child	6	1673	5
091013	11:56	1	r.muffin	7	2085	7
091013	11:56	1	r.fun	8	1919	8
091013	11:56	1	r.tennis	9	2872	6
091013	11:56	1	r.rabbit	10	3579	5
091013	11:56	1	r.hat	11	1946	5
091013	11:56	1	r.boy	12	1130	5
091013	11:56	1	r.snow	13	1146	5
091013	11:56	1	r.street	14	1153	5
091013	11:56	1	r.breeze	15	1553	6
091013	11:56	1	r.spouse	16	2472	4
091013	11:56	1	r.bed	17	1683	6
091013	11:56	1	r.derelict	18	1997	4
091013	11:56	1	r.mystic	19	2307	8
091013	11:56	1	r.bird	20	1685	7
091013	11:56	1	r.paint	21	5471	4
091013	11:56	1	r.easy	22	1227	6
091013	11:56	1	r.arm	23	1327	4
091013	11:56	1	r.strong	24	1160	6
091013	11:56	1	r.disturb	25	1510	3
091013	11:56	1	r.madman	26	1559	3
091013	11:56	1	r.intimate	27	3286	5
091013	11:56	1	r.watch	28	2521	5
091013	11:56	1	r.trophy	29	9177	4
091013	11:56	1	r.divorce	30	2771	3
091013	11:56	1	r.truck	31	2010	2
091013	11:56	1	r.sour	32	2119	1
091013	11:56	1	r.kick	33	2456	4
091013	11:56	1	r.orgasm	34	2300	9
091013	11:56	1	r.modest	35	2637	6
091013	11:56	1	r.jewel	36	4202	7
091013	11:56	1	r.victory	37	2097	8
091013	11:56	1	r.rain	38	2146	7
091013	11:56	1	r.cannon	39	2514	3
091013	11:56	1	r.thief	40	1579	2
091013	11:56	1	r.sunrise	41	3081	7
091013	11:56	1	r.destruction	42	2188	3
091013	11:56	1	r.disaster	43	1978	3
091013	11:56	1	r.torture	44	1841	1
091013	11:56	1	r.answer	45	1941	9
091013	11:56	1	r.sapphire	46	1253	8
091013	11:56	1	r.loved	47	1121	7
091013	11:56	1	r.punishment	48	1785	2
091013	11:56	1	r.plain	49	2504	4
091013	11:56	1	r.insane	50	1353	3
091013	11:56	1	r.foam	51	1457	6
091013	11:56	1	r.despise	52	1581	1
091013	11:56	1	r.trumpet	53	2379	6
091013	11:56	1	r.pet	54	1049	5
091013	11:56	1	r.chin	55	1285	5
091013	11:56	1	r.scorpion	56	2471	9
091013	11:56	1	r.impotent	57	3914	1
091013	11:56	1	r.utensil	58	3707	4
091013	11:56	1	r.pistol	59	2622	3
091013	11:56	1	r.proud	60	6467	6
091013	11:56	1	f.vode	1	4574	6
091013	11:56	1	f.gweese	2	3014	7
091013	11:56	1	f.dwoon	3	1532	7
091013	11:56	1	f.smooge	4	2428	8
091013	11:56	1	f.thoosh	5	3480	8
091013	11:56	1	f.noof	6	2035	7
091013	11:56	1	f.lale	7	2311	8
091013	11:56	1	f.spome	8	2496	6
091013	11:56	1	f.sheeb	9	1691	8
091013	11:56	1	f.drooch	10	7933	4
091013	11:56	1	f.thwague	11	3087	3
091013	11:56	1	f.yose	12	2058	6
091013	11:56	1	f.doog	13	1725	7
091013	11:56	1	f.pleege	14	3398	8
091013	11:56	1	f.breep	15	3092	5
091013	11:56	1	f.gware	16	1878	4
091013	11:56	1	f.plook	17	1729	6
091013	11:56	1	f.grooch	18	2193	7
091013	11:56	1	f.pleeth	19	1127	7
091013	11:56	1	f.moosh	20	1399	8
091013	11:56	1	f.thote	21	2508	6
091013	11:56	1	f.gweeve	22	1927	7
091013	11:56	1	f.dwoot	23	1390	8
091013	11:56	1	f.blave	24	1789	4
091013	11:56	1	f.floof	25	1659	6
091013	11:56	1	f.thweer	26	3726	7
091013	11:56	1	f.thook	27	2311	8
091013	11:56	1	f.gwache	28	2272	6
091013	11:56	1	f.dreese	29	3043	7
091013	11:56	1	f.yase	30	1968	4
091013	11:56	1	f.yoom	31	1951	6
091013	11:56	1	f.thrare	32	7526	4
091013	11:56	1	f.meef	33	2920	9
091013	11:56	1	f.chode	34	1738	9
091013	11:56	1	f.snase	35	3050	6
091013	11:56	1	f.gooth	36	2054	9
091013	11:56	1	f.nooge	37	930	9
091013	11:56	1	f.skogue	38	1578	8
091013	11:56	1	f.thweel	39	1192	7
091013	11:56	1	f.stose	40	2278	9
091013	11:56	1	f.kreer	41	1440	9
091013	11:56	1	f.threege	42	1772	6
091013	11:56	1	f.cheeb	43	1843	7
091013	11:56	1	f.pague	44	2183	4
091013	11:56	1	f.woog	45	1966	7
091013	11:56	1	f.thwome	46	2956	6
091013	11:56	1	f.joosh	47	3180	8
091013	11:56	1	f.skooth	48	3915	7
091013	11:56	1	f.kwove	49	1941	6
091013	11:56	1	f.kwave	50	2837	7
091013	11:56	1	f.snave	51	2482	4
091013	11:56	1	f.trague	52	1356	6
091013	11:56	1	f.shreem	53	1476	7
091013	11:56	1	f.greer	54	1782	8
091013	11:56	1	f.zoof	55	4061	6
091013	11:56	1	f.krague	56	1897	4
091013	11:56	1	f.treek	57	1746	6
091013	11:56	1	f.zope	58	1936	5
091013	11:56	1	f.nogue	59	730	5
091013	11:56	1	f.zooge	60	738	5
091013	11:56	1	howtype	1	9481	6
091013	15:17	1	speed	1	3394	40
091013	15:17	1	error	2	2853	95
091013	15:17	1	whichhand	3	6873	right
091013	15:17	1	f.shreep	1	11629	4
091013	15:17	1	f.bloof	2	3261	5
091013	15:17	1	f.skame	3	4168	6
091013	15:17	1	f.nathe	4	2472	8
091013	15:17	1	f.kleeb	5	3779	3
091013	15:17	1	f.zare	6	2026	8
091013	15:17	1	f.kleel	7	1430	8
091013	15:17	1	f.jabe	8	1802	9
091013	15:17	1	f.kwage	9	3376	8
091013	15:17	1	f.twame	10	1431	8
091013	15:17	1	f.kwode	11	2418	8
091013	15:17	1	f.plothe	12	2344	8
091013	15:17	1	f.yache	13	1728	9
091013	15:17	1	f.yeet	14	1640	9
091013	15:17	1	f.nafe	15	1277	9
091013	15:17	1	f.dween	16	2071	7
091013	15:17	1	f.wogue	17	4354	9
091013	15:17	1	f.sleel	18	2706	6
091013	15:17	1	f.fleech	19	3052	7
091013	15:17	1	f.prame	20	2304	2
091013	15:17	1	f.jobe	21	1746	5
091013	15:17	1	f.glook	22	1474	3
091013	15:17	1	f.pleesh	23	1380	3
091013	15:17	1	f.sneed	24	2114	1
091013	15:17	1	f.swoge	25	4195	3
091013	15:17	1	f.zove	26	2258	5
091013	15:17	1	f.sloche	27	5790	4
091013	15:17	1	f.dwose	28	2349	5
091013	15:17	1	f.pothe	29	2173	7
091013	15:17	1	f.kwame	30	3140	6
091013	15:17	1	f.thache	31	3381	8
091013	15:17	1	f.gwood	32	2267	9
091013	15:17	1	f.plofe	33	4455	5
091013	15:17	1	f.gwashe	34	2699	8
091013	15:17	1	f.sleed	35	2901	5
091013	15:17	1	f.shraze	36	5695	8
091013	15:17	1	f.slobe	37	4138	5
091013	15:17	1	f.snome	38	4787	5
091013	15:17	1	f.snothe	39	2546	3
091013	15:17	1	f.smeef	40	4666	3
091013	15:17	1	f.shrofe	41	3942	5
091013	15:17	1	f.twathe	42	4254	5
091013	15:17	1	f.thook	43	2955	3
091013	15:17	1	f.smeel	44	3899	1
091013	15:17	1	f.dwashe	45	2117	9
091013	15:17	1	f.seesh	46	2950	4
091013	15:17	1	f.zoor	47	3262	5
091013	15:17	1	f.swoche	48	3497	4
091013	15:17	1	f.smame	49	2220	2
091013	15:17	1	f.krare	50	3841	3
091013	15:17	1	f.kwogue	51	2342	5
091013	15:17	1	f.prooch	52	6550	3
091013	15:17	1	f.thrabe	53	1895	4
091013	15:17	1	f.trabe	54	4457	7
091013	15:17	1	f.dague	55	3533	6
091013	15:17	1	f.kwose	56	1726	5
091013	15:17	1	f.bloove	57	6118	4
091013	15:17	1	f.teeve	58	2345	4
091013	15:17	1	f.kleef	59	1769	2
091013	15:17	1	f.drode	60	2135	5
091013	15:17	1	r.passion	1	3811	9
091013	15:17	1	r.useless	2	1441	1
091013	15:17	1	r.beautiful	3	1861	9
091013	15:17	1	r.muddy	4	4024	3
091013	15:17	1	r.enjoyment	5	2094	9
091013	15:17	1	r.favor	6	3231	7
091013	15:17	1	r.nude	7	2708	2
091013	15:17	1	r.mountain	8	1806	5
091013	15:17	1	r.mildew	9	1076	5
091013	15:17	1	r.city	10	2870	5
091013	15:17	1	r.foul	11	3609	2
091013	15:17	1	r.activate	12	3199	5
091013	15:17	1	r.hydrant	13	1069	5
091013	15:17	1	r.mistake	14	3160	2
091013	15:17	1	r.crutch	15	1519	5
091013	15:17	1	r.protected	16	2440	8
091013	15:17	1	r.swift	17	2701	5
091013	15:17	1	r.warmth	18	1663	8
091013	15:17	1	r.corpse	19	3009	2
091013	15:17	1	r.prick	20	2167	2
091013	15:17	1	r.lawsuit	21	2166	2
091013	15:17	1	r.vision	22	2805	5
091013	15:17	1	r.burial	23	2371	2
091013	15:17	1	r.advantage	24	2298	7
091013	15:17	1	r.punishment	25	1772	1
091013	15:17	1	r.modest	26	2043	8
091013	15:17	1	r.achievement	27	1398	9
091013	15:17	1	r.wealthy	28	1492	9
091013	15:17	1	r.travel	29	2342	5
091013	15:17	1	r.soothe	30	2262	6
091013	15:17	1	r.brother	31	1921	5
091013	15:17	1	r.garden	32	2114	5
091013	15:17	1	r.bland	33	2868	4
091013	15:17	1	r.cat	34	4303	6
091013	15:17	1	r.demon	35	3073	1
091013	15:17	1	r.tumor	36	4733	1
091013	15:17	1	r.masterful	37	2462	9
091013	15:17	1	r.thought	38	2057	5
091013	15:17	1	r.penalty	39	1789	3
091013	15:17	1	r.mind	40	1371	5
091013	15:17	1	r.vacation	41	2594	8
091013	15:17	1	r.brave	42	2432	7
091013	15:17	1	r.magical	43	1468	7
091013	15:17	1	r.identity	44	1375	5
091013	15:17	1	r.owl	45	4270	5
091013	15:17	1	r.intellect	46	3377	8
091013	15:17	1	r.grateful	47	1384	8
091013	15:17	1	r.caress	48	3326	6
091013	15:17	1	r.perfume	49	2759	6
091013	15:17	1	r.bored	50	3039	4
091013	15:17	1	r.rabbit	51	1883	5
091013	15:17	1	r.astronaut	52	1446	5
091013	15:17	1	r.nun	53	2505	5
091013	15:17	1	r.scandal	54	4163	3
091013	15:17	1	r.orchestra	55	1626	5
091013	15:17	1	r.weary	56	2823	3
091013	15:17	1	r.star	57	1236	6
091013	15:17	1	r.food	58	1696	8
091013	15:17	1	r.tease	59	3242	2
091013	15:17	1	r.dark	60	2278	5
091013	15:17	1	howtype	1	14143	7
091013	16:29	1	speed	1	3339	39
091013	16:29	1	error	2	2743	100
091013	16:29	1	whichhand	3	9585	right
091013	16:29	1	r.ecstasy	1	9661	4
091013	16:29	1	r.hand	2	6234	6
091013	16:29	1	r.germs	3	4360	5
091013	16:29	1	r.peace	4	4856	6
091013	16:29	1	r.haphazard	5	4556	4
091013	16:29	1	r.frigid	6	4101	3
091013	16:29	1	r.sphere	7	4767	5
091013	16:29	1	r.bench	8	4159	4
091013	16:29	1	r.irritate	9	2623	3
091013	16:29	1	r.treat	10	4164	5
091013	16:29	1	r.annoy	11	4172	4
091013	16:29	1	r.fork	12	4404	3
091013	16:29	1	r.alimony	13	3970	3
091013	16:29	1	r.pressure	14	4162	3
091013	16:29	1	r.chance	15	5297	4
091013	16:29	1	r.insecure	16	2868	2
091013	16:29	1	r.voyage	17	3160	7
091013	16:29	1	r.python	18	3279	6
091013	16:29	1	r.dagger	19	2890	5
091013	16:29	1	r.god	20	2884	8
091013	16:29	1	r.alive	21	2823	7
091013	16:29	1	r.vest	22	3100	5
091013	16:29	1	r.obesity	23	3766	4
091013	16:29	1	r.excellence	24	6854	5
091013	16:29	1	r.caress	25	3123	8
091013	16:29	1	r.fatigued	26	3861	4
091013	16:29	1	r.thoughtful	27	4984	9
091013	16:29	1	r.paradise	28	3112	5
091013	16:29	1	r.song	29	3369	9
091013	16:29	1	r.egg	30	5872	6
091013	16:29	1	r.vomit	31	3501	2
091013	16:29	1	r.letter	32	4031	8
091013	16:29	1	r.tidy	33	3084	4
091013	16:29	1	r.sick	34	3062	2
091013	16:29	1	r.nonsense	35	3234	7
091013	16:29	1	r.house	36	2783	5
091013	16:29	1	r.urine	37	7349	3
091013	16:29	1	r.fat	38	3678	5
091013	16:29	1	r.plane	39	3425	7
091013	16:29	1	r.roach	40	4198	3
091013	16:29	1	r.scissors	41	5125	5
091013	16:29	1	r.deceit	42	3510	4
091013	16:29	1	r.handsome	43	3720	6
091013	16:29	1	r.luscious	44	7425	4
091013	16:29	1	r.satisfied	45	3287	6
091013	16:29	1	r.baby	46	3066	9
091013	16:29	1	r.disdainful	47	2685	3
091013	16:29	1	r.startled	48	3080	3
091013	16:29	1	r.quick	49	3635	5
091013	16:29	1	r.shadow	50	2896	6
091013	16:29	1	r.virgin	51	3849	4
091013	16:29	1	r.city	52	2782	4
091013	16:29	1	r.mail	53	2844	7
091013	16:29	1	r.pride	54	3192	4
091013	16:29	1	r.face	55	2134	7
091013	16:29	1	r.serious	56	4135	4
091013	16:29	1	r.neurotic	57	2240	3
091013	16:29	1	r.ridicule	58	2188	3
091013	16:29	1	r.limber	59	3115	5
091013	16:29	1	r.manner	60	2156	5
091013	16:29	1	f.shreeb	1	4314	4
091013	16:29	1	f.thwoshe	2	3739	4
091013	16:29	1	f.swoog	3	4772	3
091013	16:29	1	f.gleel	4	2532	4
091013	16:29	1	f.thogue	5	1597	5
091013	16:29	1	f.shroom	6	2682	5
091013	16:29	1	f.swoof	7	2477	5
091013	16:29	1	f.flogue	8	5015	6
091013	16:29	1	f.theep	9	1709	6
091013	16:29	1	f.prothe	10	1678	4
091013	16:29	1	f.thwood	11	3145	4
091013	16:29	1	f.skothe	12	2193	6
091013	16:29	1	f.veed	13	3726	5
091013	16:29	1	f.goche	14	1407	4
091013	16:29	1	f.zeeg	15	2933	4
091013	16:29	1	f.gloog	16	2037	5
091013	16:29	1	f.thwoob	17	1970	4
091013	16:29	1	f.bave	18	1449	5
091013	16:29	1	f.trooge	19	2316	6
091013	16:29	1	f.toosh	20	3405	5
091013	16:29	1	f.thweese	21	2044	6
091013	16:29	1	f.throgue	22	1383	4
091013	16:29	1	f.thashe	23	1445	4
091013	16:29	1	f.toof	24	1793	4
091013	16:29	1	f.slame	25	1527	5
091013	16:29	1	f.gwade	26	3119	3
091013	16:29	1	f.thwoke	27	2008	3
091013	16:29	1	f.krobe	28	3606	5
091013	16:29	1	f.stogue	29	1940	5
091013	16:29	1	f.skeef	30	1540	6
091013	16:29	1	f.yooze	31	2348	4
091013	16:29	1	f.sloom	32	1836	5
091013	16:29	1	f.thwane	33	1689	4
091013	16:29	1	f.thwoot	34	1435	4
091013	16:29	1	f.slale	35	4535	5
091013	16:29	1	f.snoosh	36	4136	6
091013	16:29	1	f.steeb	37	2305	4
091013	16:29	1	f.zathe	38	1451	4
091013	16:29	1	f.ploshe	39	1606	4
091013	16:29	1	f.twoom	40	2420	4
091013	16:29	1	f.dwage	41	2561	5
091013	16:29	1	f.shabe	42	2264	4
091013	16:29	1	f.spoot	43	2283	5
091013	16:29	1	f.thwake	44	1798	4
091013	16:29	1	f.trage	45	3387	4
091013	16:29	1	f.glole	46	2210	4
091013	16:29	1	f.threer	47	2463	3
091013	16:29	1	f.thwove	48	4274	4
091013	16:29	1	f.zeef	49	5038	6
091013	16:29	1	f.kwoche	50	2948	4
091013	16:29	1	f.skobe	51	2131	5
091013	16:29	1	f.kwashe	52	2492	4
091013	16:29	1	f.kwope	53	1974	6
091013	16:29	1	f.snane	54	1997	5
091013	16:29	1	f.smeed	55	1491	4
091013	16:29	1	f.klade	56	1229	4
091013	16:29	1	f.zoke	57	2441	6
091013	16:29	1	f.shreeze	58	2341	6
091013	16:29	1	f.gwache	59	2398	4
091013	16:29	1	f.throoge	60	2084	4
091013	16:29	1	howtype	1	16549	5
091213	14:30	1	speed	1	3095	57
091213	14:30	1	error	2	2965	91
091213	14:30	1	whichhand	3	5309	right
091213	14:30	1	r.robber	1	14447	1
091213	14:30	1	r.obnoxious	2	4607	2
091213	14:30	1	r.profit	3	2982	9
091213	14:30	1	r.resent	4	2564	1
091213	14:30	1	r.metal	5	2804	5
091213	14:30	1	r.cruel	6	2034	1
091213	14:30	1	r.pizza	7	2701	8
091213	14:30	1	r.outdoors	8	2648	8
091213	14:30	1	r.murderer	9	1668	1
091213	14:30	1	r.name	10	2255	5
091213	14:30	1	r.timid	11	3443	2
091213	14:30	1	r.vision	12	5095	9
091213	14:30	1	r.brave	13	1633	9
091213	14:30	1	r.desire	14	2624	5
091213	14:30	1	r.carcass	15	2011	1
091213	14:30	1	r.lucky	16	2088	9
091213	14:30	1	r.admired	17	1754	9
091213	14:30	1	r.cellar	18	3250	5
091213	14:30	1	r.starving	19	1782	1
091213	14:30	1	r.lust	20	2972	1
091213	14:30	1	r.respect	21	2019	9
091213	14:30	1	r.damage	22	2744	1
091213	14:30	1	r.slave	23	1872	1
091213	14:30	1	r.safe	24	3339	9
091213	14:30	1	r.honor	25	1532	9
091213	14:30	1	r.gender	26	1740	5
091213	14:30	1	r.illness	27	1964	1
091213	14:30	1	r.virgin	28	4075	5
091213	14:30	1	r.fish	29	3735	8
091213	14:30	1	r.lawsuit	30	1752	1
091213	14:30	1	r.tool	31	3943	7
091213	14:30	1	r.improve	32	6247	8
091213	14:30	1	r.millionaire	33	1756	9
091213	14:30	1	r.punishment	34	1668	1
091213	14:30	1	r.toxic	35	1751	1
091213	14:30	1	r.depression	36	2230	1
091213	14:30	1	r.terrible	37	1907	1
091213	14:30	1	r.quart	38	1685	5
091213	14:30	1	r.enraged	39	1742	1
091213	14:30	1	r.smooth	40	2606	6
091213	14:30	1	r.cute	41	3212	9
091213	14:30	1	r.statue	42	1866	5
091213	14:30	1	r.hawk	43	2365	5
091213	14:30	1	r.embarrassed	44	2460	2
091213	14:30	1	r.song	45	6135	6
091213	14:30	1	r.whistle	46	2033	6
091213	14:30	1	r.pleasure	47	2477	9
091213	14:30	1	r.frigid	48	3752	1
091213	14:30	1	r.option	49	1624	5
091213	14:30	1	r.massacre	50	1877	1
091213	14:30	1	r.talent	51	2223	8
091213	14:30	1	r.bees	52	2900	5
091213	14:30	1	r.stress	53	2806	1
091213	14:30	1	r.danger	54	1828	1
091213	14:30	1	r.vandal	55	1688	1
091213	14:30	1	r.bright	56	2035	5
091213	14:30	1	r.silk	57	4959	9
091213	14:30	1	r.war	58	1559	1
091213	14:30	1	r.square	59	1550	5
091213	14:30	1	r.bride	60	1694	9
091213	14:30	1	f.vobe	1	4138	5
091213	14:30	1	f.slase	2	2451	1
091213	14:30	1	f.mofe	3	2702	1
091213	14:30	1	f.fleeve	4	5960	4
091213	14:30	1	f.tashe	5	4825	6
091213	14:30	1	f.woog	6	3031	7
091213	14:30	1	f.moshe	7	2843	6
091213	14:30	1	f.yove	8	3223	5
091213	14:30	1	f.neege	9	2021	2
091213	14:30	1	f.frathe	10	4114	4
091213	14:30	1	f.snane	11	1987	1
091213	14:30	1	f.dwofe	12	3234	6
091213	14:30	1	f.gweeg	13	3254	6
091213	14:30	1	f.kogue	14	4539	8
091213	14:30	1	f.zape	15	3964	7
091213	14:30	1	f.blave	16	3661	8
091213	14:30	1	f.spate	17	4231	2
091213	14:30	1	f.brogue	18	3292	6
091213	14:30	1	f.kwoosh	19	2199	8
091213	14:30	1	f.glook	20	2844	6
091213	14:30	1	f.spoob	21	1864	7
091213	14:30	1	f.klade	22	2811	4
091213	14:30	1	f.blathe	23	3089	5
091213	14:30	1	f.spome	24	2643	2
091213	14:30	1	f.zache	25	2655	2
091213	14:30	1	f.thope	26	2363	4
091213	14:30	1	f.snooch	27	2434	8
091213	14:30	1	f.theel	28	2319	5
091213	14:30	1	f.jeet	29	2224	5
091213	14:30	1	f.dwome	30	2541	6
091213	14:30	1	f.gleeg	31	4654	6
091213	14:30	1	f.kloshe	32	2026	4
091213	14:30	1	f.toosh	33	3495	9
091213	14:30	1	f.klabe	34	2488	2
091213	14:30	1	f.snache	35	2139	1
091213	14:30	1	f.jame	36	2116	4
091213	14:30	1	f.smeesh	37	2260	8
091213	14:30	1	f.gwaze	38	2376	3
091213	14:30	1	f.glothe	39	3374	2
091213	14:30	1	f.dague	40	2510	1
091213	14:30	1	f.smoom	41	2335	7
091213	14:30	1	f.dwaze	42	2407	5
091213	14:30	1	f.boosh	43	2181	9
091213	14:30	1	f.snoshe	44	2068	6
091213	14:30	1	f.drase	45	1991	2
091213	14:30	1	f.dweek	46	2469	4
091213	14:30	1	f.neeb	47	4088	6
091213	14:30	1	f.shrale	48	2291	1
091213	14:30	1	f.throom	49	2133	7
091213	14:30	1	f.drafe	50	2205	3
091213	14:30	1	f.snoge	51	3612	5
091213	14:30	1	f.joom	52	2217	7
091213	14:30	1	f.skobe	53	1966	2
091213	14:30	1	f.sneeve	54	2173	4
091213	14:30	1	f.yeeve	55	1628	4
091213	14:30	1	f.thwool	56	2216	6
091213	14:30	1	f.preet	57	1926	4
091213	14:30	1	f.prool	58	1951	6
091213	14:30	1	f.groor	59	1750	5
091213	14:30	1	f.twame	60	2494	2
091213	14:30	1	howtype	1	20118	6
091313	12:01	1	speed	1	6714	35
091313	12:01	1	error	2	2899	91
091313	12:01	1	whichhand	3	9051	right
091313	12:01	1	r.stagnant	1	8561	2
091313	12:01	1	r.intercourse	2	7411	5
091313	12:01	1	r.absurd	3	3672	1
091313	12:01	1	r.moment	4	4309	7
091313	12:01	1	r.listless	5	3943	4
091313	12:01	1	r.indifferent	6	3262	5
091313	12:01	1	r.excellence	7	3424	9
091313	12:01	1	r.flower	8	2152	9
091313	12:01	1	r.insecure	9	4912	3
091313	12:01	1	r.heal	10	4481	5
091313	12:01	1	r.traitor	11	4748	9
091313	12:01	1	r.glass	12	4917	5
091313	12:01	1	r.ugly	13	3016	1
091313	12:01	1	r.imagine	14	2765	9
091313	12:01	1	r.vision	15	6508	8
091313	12:01	1	r.virgin	16	4303	9
091313	12:01	1	r.mucus	17	2705	1
091313	12:01	1	r.overwhelmed	18	3091	1
091313	12:01	1	r.food	19	4662	6
091313	12:01	1	r.garment	20	7193	5
091313	12:01	1	r.bouquet	21	5985	5
091313	12:01	1	r.diploma	22	2280	9
091313	12:01	1	r.fabric	23	5554	7
091313	12:01	1	r.festive	24	2596	9
091313	12:01	1	r.contents	25	4218	5
091313	12:01	1	r.nectar	26	9519	6
091313	12:01	1	r.killer	27	2626	1
091313	12:01	1	r.book	28	3495	9
091313	12:01	1	r.save	29	2594	9
091313	12:01	1	r.muscular	30	3535	7
091313	12:01	1	r.tamper	31	3823	3
091313	12:01	1	r.poster	32	4518	7
091313	12:01	1	r.interest	33	3814	8
091313	12:01	1	r.diver	34	3941	9
091313	12:01	1	r.detached	35	2767	1
091313	12:01	1	r.health	36	12109	6
091313	12:01	1	r.penis	37	3378	2
091313	12:01	1	r.cash	38	2336	9
091313	12:01	1	r.rattle	39	6649	5
091313	12:01	1	r.sunlight	40	4446	9
091313	12:01	1	r.nonsense	41	3291	1
091313	12:01	1	r.intimate	42	3125	8
091313	12:01	1	r.nice	43	2134	9
091313	12:01	1	r.paralysis	44	7063	1
091313	12:01	1	r.hurt	45	2091	1
091313	12:01	1	r.circle	46	3574	5
091313	12:01	1	r.cord	47	2348	3
091313	12:01	1	r.frustrated	48	1820	1
091313	12:01	1	r.gangrene	49	4393	1
091313	12:01	1	r.windmill	50	2343	8
091313	12:01	1	r.hatred	51	2152	1
091313	12:01	1	r.memories	52	4022	7
091313	12:01	1	r.prick	53	2869	1
091313	12:01	1	r.rabbit	54	1895	9
091313	12:01	1	r.loyal	55	1730	9
091313	12:01	1	r.chocolate	56	3729	7
091313	12:01	1	r.color	57	3089	9
091313	12:01	1	r.rat	58	1837	1
091313	12:01	1	r.grateful	59	1713	9
091313	12:01	1	r.greed	60	3433	1
091313	12:01	1	f.ploge	1	5374	5
091313	12:01	1	f.drofe	2	3230	5
091313	12:01	1	f.sleese	3	2628	1
091313	12:01	1	f.dwase	4	2638	5
091313	12:01	1	f.ploove	5	1963	5
091313	12:01	1	f.dwague	6	3100	5
091313	12:01	1	f.skogue	7	2852	5
091313	12:01	1	f.skothe	8	3560	4
091313	12:01	1	f.trome	9	3304	5
091313	12:01	1	f.stobe	10	2570	1
091313	12:01	1	f.spoot	11	2841	5
091313	12:01	1	f.thwoof	12	2381	5
091313	12:01	1	f.speeth	13	1923	5
091313	12:01	1	f.thrafe	14	2557	2
091313	12:01	1	f.lole	15	1948	5
091313	12:01	1	f.groor	16	2948	5
091313	12:01	1	f.grabe	17	2804	5
091313	12:01	1	f.smave	18	2945	5
091313	12:01	1	f.blabe	19	4138	5
091313	12:01	1	f.swoom	20	4547	7
091313	12:01	1	f.klogue	21	2180	5
091313	12:01	1	f.nague	22	4034	3
091313	12:01	1	f.gware	23	2151	5
091313	12:01	1	f.proot	24	2143	5
091313	12:01	1	f.stague	25	1879	5
091313	12:01	1	f.drase	26	2457	5
091313	12:01	1	f.glooge	27	2293	5
091313	12:01	1	f.throoch	28	4166	5
091313	12:01	1	f.spove	29	2158	5
091313	12:01	1	f.lool	30	2173	7
091313	12:01	1	f.gleese	31	3220	5
091313	12:01	1	f.dooch	32	1929	5
091313	12:01	1	f.dwope	33	2034	5
091313	12:01	1	f.shrore	34	3287	5
091313	12:01	1	f.sheege	35	1714	5
091313	12:01	1	f.lashe	36	1835	5
091313	12:01	1	f.stoog	37	2647	5
091313	12:01	1	f.prooge	38	2186	5
091313	12:01	1	f.sweef	39	1953	5
091313	12:01	1	f.moshe	40	3624	7
091313	12:01	1	f.mothe	41	2029	5
091313	12:01	1	f.vooge	42	2769	7
091313	12:01	1	f.stose	43	1849	5
091313	12:01	1	f.gwome	44	1732	5
091313	12:01	1	f.noge	45	2797	5
091313	12:01	1	f.zogue	46	3364	7
091313	12:01	1	f.kloche	47	3235	5
091313	12:01	1	f.teef	48	1702	5
091313	12:01	1	f.steese	49	2552	5
091313	12:01	1	f.snode	50	2760	3
091313	12:01	1	f.kweech	51	2391	3
091313	12:01	1	f.dreet	52	1589	5
091313	12:01	1	f.thweet	53	1820	5
091313	12:01	1	f.pleek	54	4193	7
091313	12:01	1	f.shrove	55	2606	7
091313	12:01	1	f.dobe	56	1805	5
091313	12:01	1	f.throok	57	1667	5
091313	12:01	1	f.gwashe	58	1556	5
091313	12:01	1	f.chade	59	2029	5
091313	12:01	1	f.froosh	60	1774	5
091313	12:01	1	howtype	1	13093	4
091613	10:18	1	speed	1	8088	77
091613	10:18	1	error	2	4282	99
091613	10:18	1	whichhand	3	4606	Left
091613	10:18	1	r.gymnast	1	5274	5
091613	10:18	1	r.nurse	2	3469	7
091613	10:18	1	r.traitor	3	2256	1
091613	10:18	1	r.crushed	4	2005	2
091613	10:18	1	r.shy	5	3611	4
091613	10:18	1	r.gangrene	6	2104	1
091613	10:18	1	r.appliance	7	4850	5
091613	10:18	1	r.drown	8	2527	1
091613	10:18	1	r.blind	9	2279	2
091613	10:18	1	r.home	10	3202	9
091613	10:18	1	r.fearful	11	3720	2
091613	10:18	1	r.pity	12	1754	3
091613	10:18	1	r.naked	13	4521	5
091613	10:18	1	r.talent	14	1715	7
091613	10:18	1	r.mobility	15	2028	6
091613	10:18	1	r.lion	16	5040	7
091613	10:18	1	r.selfish	17	2325	3
091613	10:18	1	r.timid	18	4582	4
091613	10:18	1	r.rancid	19	1917	1
091613	10:18	1	r.blasphemy	20	1855	2
091613	10:18	1	r.overcast	21	3666	5
091613	10:18	1	r.graduate	22	2158	8
091613	10:18	1	r.bouquet	23	2302	7
091613	10:18	1	r.mucus	24	2415	2
091613	10:18	1	r.palace	25	2244	8
091613	10:18	1	r.patient	26	6864	4
091613	10:18	1	r.lavish	27	2253	7
091613	10:18	1	r.finger	28	4169	5
091613	10:18	1	r.coast	29	4856	6
091613	10:18	1	r.cliff	30	2108	4
091613	10:18	1	r.free	31	1871	9
091613	10:18	1	r.hay	32	3905	5
091613	10:18	1	r.nightmare	33	1436	1
091613	10:18	1	r.venom	34	2600	1
091613	10:18	1	r.peace	35	2022	9
091613	10:18	1	r.ambition	36	1834	8
091613	10:18	1	r.context	37	1559	5
091613	10:18	1	r.ocean	38	1590	7
091613	10:18	1	r.wealthy	39	1716	8
091613	10:18	1	r.arm	40	1437	5
091613	10:18	1	r.satisfied	41	2225	7
091613	10:18	1	r.weapon	42	2598	4
091613	10:18	1	r.impair	43	2132	3
091613	10:18	1	r.addicted	44	2125	3
091613	10:18	1	r.bees	45	2134	2
091613	10:18	1	r.pleasure	46	1366	7
091613	10:18	1	r.disloyal	47	1789	2
091613	10:18	1	r.tamper	48	2403	3
091613	10:18	1	r.pizza	49	2073	6
091613	10:18	1	r.field	50	1756	5
091613	10:18	1	r.politeness	51	2180	6
091613	10:18	1	r.jelly	52	2178	5
091613	10:18	1	r.decompose	53	2440	4
091613	10:18	1	r.yellow	54	4469	6
091613	10:18	1	r.shotgun	55	3625	4
091613	10:18	1	r.sick	56	1462	3
091613	10:18	1	r.ink	57	2577	6
091613	10:18	1	r.wagon	58	1160	5
091613	10:18	1	r.dollar	59	1678	7
091613	10:18	1	r.garter	60	1857	5
091613	10:18	1	f.pleeve	1	4198	4
091613	10:18	1	f.blale	2	4364	3
091613	10:18	1	f.prooth	3	5812	5
091613	10:18	1	f.flabe	4	1897	4
091613	10:18	1	f.toshe	5	4732	2
091613	10:18	1	f.yogue	6	6341	6
091613	10:18	1	f.skoosh	7	2046	2
091613	10:18	1	f.tague	8	4258	7
091613	10:18	1	f.frofe	9	2638	5
091613	10:18	1	f.thwoom	10	7259	3
091613	10:18	1	f.jeef	11	5895	8
091613	10:18	1	f.frooch	12	2962	7
091613	10:18	1	f.cheel	13	2650	5
091613	10:18	1	f.freeth	14	3374	6
091613	10:18	1	f.choom	15	6269	4
091613	10:18	1	f.thone	16	4513	5
091613	10:18	1	f.yoze	17	3395	2
091613	10:18	1	f.dreeze	18	2505	3
091613	10:18	1	f.shache	19	5859	5
091613	10:18	1	f.grooch	20	1927	6
091613	10:18	1	f.shrooch	21	3704	6
091613	10:18	1	f.joshe	22	5410	5
091613	10:18	1	f.gooth	23	2744	5
091613	10:18	1	f.tafe	24	4080	7
091613	10:18	1	f.spave	25	4274	3
091613	10:18	1	f.thoosh	26	3350	4
091613	10:18	1	f.blabe	27	2711	7
091613	10:18	1	f.swothe	28	1776	7
091613	10:18	1	f.gleese	29	1614	6
091613	10:18	1	f.gwase	30	4587	5
091613	10:18	1	f.frashe	31	3243	5
091613	10:18	1	f.spame	32	1886	4
091613	10:18	1	f.twove	33	2265	3
091613	10:18	1	f.treek	34	1915	6
091613	10:18	1	f.yague	35	5021	5
091613	10:18	1	f.sheeg	36	2091	6
091613	10:18	1	f.flape	37	2318	4
091613	10:18	1	f.yaze	38	1463	3
091613	10:18	1	f.frothe	39	1833	6
091613	10:18	1	f.dweech	40	2998	3
091613	10:18	1	f.smooge	41	4452	6
091613	10:18	1	f.chool	42	2600	4
091613	10:18	1	f.treef	43	1886	5
091613	10:18	1	f.prache	44	6136	5
091613	10:18	1	f.gwool	45	6034	3
091613	10:18	1	f.jate	46	3200	4
091613	10:18	1	f.gwooch	47	3454	4
091613	10:18	1	f.throche	48	1922	5
091613	10:18	1	f.shrape	49	2099	4
091613	10:18	1	f.threech	50	3612	5
091613	10:18	1	f.grare	51	3066	6
091613	10:18	1	f.shreeg	52	2541	4
091613	10:18	1	f.thrare	53	1782	6
091613	10:18	1	f.drooch	54	3228	5
091613	10:18	1	f.shroosh	55	2217	4
091613	10:18	1	f.gwashe	56	3454	3
091613	10:18	1	f.bleege	57	2362	4
091613	10:18	1	f.mathe	58	1545	5
091613	10:18	1	f.blague	59	2257	4
091613	10:18	1	f.vave	60	1757	7
091613	10:18	1	howtype	1	8691	7
091613	13:31	1	speed	1	12833	42
091613	13:31	1	error	2	4368	97
091613	13:31	1	whichhand	3	9080	Left
091613	13:31	1	r.frigid	1	8148	3
091613	13:31	1	r.flood	2	5846	5
091613	13:31	1	r.pie	3	3779	9
091613	13:31	1	r.grass	4	3594	5
091613	13:31	1	r.moment	5	3585	6
091613	13:31	1	r.hospital	6	4422	3
091613	13:31	1	r.chaos	7	2861	1
091613	13:31	1	r.angel	8	2952	8
091613	13:31	1	r.bold	9	4216	6
091613	13:31	1	r.corridor	10	3358	6
091613	13:31	1	r.event	11	2606	5
091613	13:31	1	r.bankrupt	12	3076	3
091613	13:31	1	r.pervert	13	2463	1
091613	13:31	1	r.muffin	14	2586	9
091613	13:31	1	r.penthouse	15	4040	5
091613	13:31	1	r.respect	16	2317	7
091613	13:31	1	r.breast	17	6022	5
091613	13:31	1	r.daylight	18	3925	9
091613	13:31	1	r.frog	19	4486	5
091613	13:31	1	r.sunrise	20	3698	7
091613	13:31	1	r.hit	21	2532	3
091613	13:31	1	r.fearful	22	2996	3
091613	13:31	1	r.hay	23	3370	5
091613	13:31	1	r.nun	24	2682	5
091613	13:31	1	r.computer	25	1965	5
091613	13:31	1	r.blister	26	2875	4
091613	13:31	1	r.proud	27	3414	5
091613	13:31	1	r.criminal	28	2812	4
091613	13:31	1	r.killer	29	2425	1
091613	13:31	1	r.plain	30	4638	4
091613	13:31	1	r.tennis	31	3619	6
091613	13:31	1	r.rough	32	2752	4
091613	13:31	1	r.trouble	33	3249	5
091613	13:31	1	r.blue	34	2965	8
091613	13:31	1	r.identity	35	4163	6
091613	13:31	1	r.punishment	36	3380	3
091613	13:31	1	r.lonely	37	5378	3
091613	13:31	1	r.patriot	38	2897	6
091613	13:31	1	r.blond	39	4364	6
091613	13:31	1	r.thought	40	3035	8
091613	13:31	1	r.wealthy	41	3144	5
091613	13:31	1	r.agreement	42	3033	9
091613	13:31	1	r.seasick	43	2597	2
091613	13:31	1	r.restaurant	44	3235	7
091613	13:31	1	r.flirt	45	3431	5
091613	13:31	1	r.ankle	46	3837	5
091613	13:31	1	r.insolent	47	5145	4
091613	13:31	1	r.kerchief	48	3913	6
091613	13:31	1	r.depression	49	3260	2
091613	13:31	1	r.pity	50	4983	2
091613	13:31	1	r.bouquet	51	2343	6
091613	13:31	1	r.bland	52	2942	4
091613	13:31	1	r.clock	53	3350	8
091613	13:31	1	r.pizza	54	2566	9
091613	13:31	1	r.bunny	55	4285	7
091613	13:31	1	r.avalanche	56	4665	3
091613	13:31	1	r.bathtub	57	3212	5
091613	13:31	1	r.sailboat	58	1946	5
091613	13:31	1	r.terrible	59	2794	2
091613	13:31	1	r.insane	60	5302	3
091613	13:31	1	f.breer	1	5665	5
091613	13:31	1	f.throom	2	7821	5
091613	13:31	1	f.drofe	3	4948	4
091613	13:31	1	f.twame	4	3524	6
091613	13:31	1	f.yeet	5	4942	7
091613	13:31	1	f.trome	6	5351	5
091613	13:31	1	f.veeb	7	3648	6
091613	13:31	1	f.smeeth	8	5644	3
091613	13:31	1	f.spote	9	4032	4
091613	13:31	1	f.groche	10	3614	3
091613	13:31	1	f.zeesh	11	3468	6
091613	13:31	1	f.vave	12	5567	5
091613	13:31	1	f.brashe	13	4615	4
091613	13:31	1	f.drooze	14	5837	6
091613	13:31	1	f.broob	15	2586	5
091613	13:31	1	f.smase	16	3345	3
091613	13:31	1	f.prate	17	3217	3
091613	13:31	1	f.treef	18	2071	7
091613	13:31	1	f.zoog	19	4274	6
091613	13:31	1	f.frathe	20	4965	5
091613	13:31	1	f.drose	21	4349	4
091613	13:31	1	f.plove	22	3733	3
091613	13:31	1	f.thode	23	3767	4
091613	13:31	1	f.yase	24	3566	6
091613	13:31	1	f.flove	25	4254	6
091613	13:31	1	f.gwose	26	4761	4
091613	13:31	1	f.thape	27	3506	5
091613	13:31	1	f.steech	28	3212	4
091613	13:31	1	f.grooch	29	2578	2
091613	13:31	1	f.stoose	30	3576	2
