date	time	subject	trialcode	trialnum	latency	response
090213	14:42	4354654	speed	1	78416	fjdsflkjds
090213	14:42	4354654	error	2	1488	kjfdsk
090213	14:42	4354654	whichhand	3	1563	jfijfkd
090213	14:42	4354654	r.trust	1	825	4
090213	14:42	4354654	r.beverage	2	438	0
090213	14:42	4354654	f.thwole	1	737	3
090213	14:42	4354654	f.vome	2	658	4
090213	14:42	4354654	f.kwoove	3	341	0
090213	14:42	4354654	howtype	1	1228	5
090413	11:58	1	speed	1	8574	62
090413	11:58	1	error	2	4718	5
090413	11:58	1	whichhand	3	43862	Right
090413	11:58	1	r.game	1	8826	5
090413	11:58	1	r.sweetheart	2	2921	8
090413	11:58	1	r.naked	3	2698	3
090413	11:58	1	r.horse	4	1636	5
090413	11:58	1	r.skyscraper	5	2312	4
090413	11:58	1	r.knowledge	6	2649	6
090413	11:58	1	r.panic	7	2021	2
090413	11:58	1	r.birthday	8	2250	7
090413	11:58	1	r.honor	9	1918	6
090413	11:58	1	r.bed	10	1918	7
090413	11:58	1	r.virtue	11	2343	5
090413	11:58	1	r.vest	12	1863	4
090413	11:58	1	r.astronaut	13	1906	5
090413	11:58	1	r.learn	14	2020	5
090413	11:58	1	r.swimmer	15	1785	4
090413	11:58	1	r.hurt	16	1783	1
090413	11:58	1	r.scholar	17	1685	6
090413	11:58	1	r.face	18	1896	5
090413	11:58	1	r.allergy	19	3177	4
090413	11:58	1	r.blasphemy	20	2424	2
090413	11:58	1	r.bullet	21	1997	2
090413	11:58	1	r.locker	22	1619	5
090413	11:58	1	r.manner	23	1495	4
090413	11:58	1	r.noisy	24	1993	2
090413	11:58	1	r.acceptance	25	1350	8
090413	11:58	1	r.fascinate	26	1438	5
090413	11:58	1	r.treasure	27	2634	6
090413	11:58	1	r.vision	28	990	5
090413	11:58	1	r.hairpin	29	1620	5
090413	11:58	1	r.lust	30	1457	5
090413	11:58	1	r.greet	31	1509	8
090413	11:58	1	r.butter	32	1086	5
090413	11:58	1	r.cannon	33	1345	5
090413	11:58	1	r.taxi	34	1680	4
090413	11:58	1	r.champion	35	1914	7
090413	11:58	1	r.rape	36	1441	1
090413	11:58	1	r.win	37	1670	8
090413	11:58	1	r.confused	38	1953	3
090413	11:58	1	r.sexy	39	1489	5
090413	11:58	1	r.melody	40	1283	5
090413	11:58	1	r.blase	41	1757	4
090413	11:58	1	r.kindness	42	1885	9
090413	11:58	1	r.disgusted	43	1367	1
090413	11:58	1	r.nectar	44	1662	4
090413	11:58	1	r.shamed	45	1681	2
090413	11:58	1	r.kick	46	2091	3
090413	11:58	1	r.mischief	47	1517	2
090413	11:58	1	r.jealousy	48	2054	4
090413	11:58	1	r.custom	49	1410	5
090413	11:58	1	r.optimism	50	1278	6
090413	11:58	1	r.detached	51	1328	5
090413	11:58	1	r.foam	52	1585	5
090413	11:58	1	r.abortion	53	1455	1
090413	11:58	1	r.intercourse	54	2146	4
090413	11:58	1	r.opinion	55	986	5
090413	11:58	1	r.memory	56	1416	5
090413	11:58	1	r.robber	57	1805	2
090413	11:58	1	r.flower	58	1490	8
090413	11:58	1	r.sunset	59	1325	8
090413	11:58	1	r.trophy	60	1357	6
090413	11:58	1	f.dween	1	2653	4
090413	11:58	1	f.pleek	2	2233	6
090413	11:58	1	f.trook	3	1317	5
090413	11:58	1	f.swase	4	1846	5
090413	11:58	1	f.gooch	5	2097	2
090413	11:58	1	f.drate	6	1531	5
090413	11:58	1	f.veem	7	1611	5
090413	11:58	1	f.voof	8	1400	6
090413	11:58	1	f.neech	9	1238	5
090413	11:58	1	f.sloof	10	1946	4
090413	11:58	1	f.thwothe	11	2345	5
090413	11:58	1	f.mashe	12	1449	6
090413	11:58	1	f.kwoom	13	2365	7
090413	11:58	1	f.kleeg	14	1540	5
090413	11:58	1	f.krore	15	2092	4
090413	11:58	1	f.snoge	16	1278	5
090413	11:58	1	f.mooth	17	1696	6
090413	11:58	1	f.zeech	18	2434	3
090413	11:58	1	f.thwooze	19	1206	5
090413	11:58	1	f.mafe	20	916	5
090413	11:58	1	f.gweege	21	1396	5
090413	11:58	1	f.threed	22	1234	6
090413	11:58	1	f.swave	23	1533	6
090413	11:58	1	f.throove	24	1318	6
090413	11:58	1	f.thood	25	847	5
090413	11:58	1	f.frogue	26	1762	5
090413	11:58	1	f.vood	27	1177	4
090413	11:58	1	f.drobe	28	767	4
090413	11:58	1	f.swoove	29	941	5
090413	11:58	1	f.thwabe	30	3557	5
090413	11:58	1	f.nooge	31	782	5
090413	11:58	1	f.shrooch	32	1500	4
090413	11:58	1	f.thwafe	33	2501	4
090413	11:58	1	f.drose	34	1239	5
090413	11:58	1	f.brothe	35	1555	5
090413	11:58	1	f.grare	36	1818	5
090413	11:58	1	f.kweed	37	1511	4
090413	11:58	1	f.yome	38	1480	4
090413	11:58	1	f.feef	39	1922	4
090413	11:58	1	f.groge	40	1707	4
090413	11:58	1	f.froshe	41	1461	5
090413	11:58	1	f.dwose	42	1488	5
090413	11:58	1	f.boog	43	2698	3
090413	11:58	1	f.smoose	44	1556	5
090413	11:58	1	f.blave	45	1675	6
090413	11:58	1	f.thabe	46	1518	5
090413	11:58	1	f.gloose	47	935	6
090413	11:58	1	f.foof	48	1055	5
090413	11:58	1	f.zothe	49	1354	5
090413	11:58	1	f.prooch	50	1434	5
090413	11:58	1	f.skose	51	1734	4
090413	11:58	1	f.theeth	52	2902	3
090413	11:58	1	f.dague	53	2264	5
090413	11:58	1	f.sneeth	54	1331	3
090413	11:58	1	f.pleef	55	1491	4
090413	11:58	1	f.smashe	56	2517	5
090413	11:58	1	f.twove	57	2534	5
090413	11:58	1	f.dwooch	58	2383	4
090413	11:58	1	f.broshe	59	1293	5
090413	11:58	1	f.sashe	60	1638	6
090413	11:58	1	howtype	1	15545	6
090513	11:01	1	speed	1	3460	68
090513	11:01	1	error	2	2837	98
090513	11:01	1	whichhand	3	8762	right
090513	11:01	1	r.rollercoaster	1	5909	6
090513	11:01	1	r.selfish	2	4655	3
090513	11:01	1	r.displeased	3	2316	2
090513	11:01	1	r.kerosene	4	3565	6
090513	11:01	1	r.sailboat	5	3060	7
090513	11:01	1	r.impressed	6	3544	7
090513	11:01	1	r.letter	7	2896	6
090513	11:01	1	r.punishment	8	3034	4
090513	11:01	1	r.lightbulb	9	2198	5
090513	11:01	1	r.gloom	10	2940	3
090513	11:01	1	r.pig	11	2373	6
090513	11:01	1	r.machine	12	2940	6
090513	11:01	1	r.cannon	13	2844	4
090513	11:01	1	r.despise	14	2840	2
090513	11:01	1	r.gymnast	15	3589	8
090513	11:01	1	r.tool	16	2692	4
090513	11:01	1	r.haphazard	17	3686	4
090513	11:01	1	r.chin	18	3873	5
090513	11:01	1	r.elevator	19	2028	7
090513	11:01	1	r.wife	20	3073	7
090513	11:01	1	r.person	21	2980	7
090513	11:01	1	r.silk	22	3915	6
090513	11:01	1	r.desire	23	1749	6
090513	11:01	1	r.grime	24	1740	5
090513	11:01	1	r.disgusted	25	1756	4
090513	11:01	1	r.lump	26	3580	1
090513	11:01	1	r.vest	27	3267	7
090513	11:01	1	r.birthday	28	1758	6
090513	11:01	1	r.nun	29	1878	7
090513	11:01	1	r.wise	30	2000	9
090513	11:01	1	r.alert	31	2221	3
090513	11:01	1	r.dead	32	2514	4
090513	11:01	1	r.sinful	33	2268	3
090513	11:01	1	r.moody	34	1967	4
090513	11:01	1	r.sunrise	35	1493	6
090513	11:01	1	r.trauma	36	1911	3
090513	11:01	1	r.radio	37	1872	7
090513	11:01	1	r.spirit	38	1755	7
090513	11:01	1	r.protected	39	1795	8
090513	11:01	1	r.defeated	40	2696	5
090513	11:01	1	r.beauty	41	1842	7
090513	11:01	1	r.glacier	42	2694	4
090513	11:01	1	r.kitten	43	1920	6
090513	11:01	1	r.failure	44	1849	5
090513	11:01	1	r.immature	45	1781	3
090513	11:01	1	r.clock	46	1827	5
090513	11:01	1	r.knife	47	1671	6
090513	11:01	1	r.medicine	48	2482	6
090513	11:01	1	r.bouquet	49	2077	6
090513	11:01	1	r.rancid	50	2279	3
090513	11:01	1	r.hungry	51	1889	4
090513	11:01	1	r.chance	52	1564	5
090513	11:01	1	r.hammer	53	3490	6
090513	11:01	1	r.achievement	54	1733	6
090513	11:01	1	r.cord	55	2581	3
090513	11:01	1	r.invest	56	2180	7
090513	11:01	1	r.dignified	57	2874	5
090513	11:01	1	r.journal	58	1934	4
090513	11:01	1	r.soothe	59	2542	7
090513	11:01	1	r.lively	60	2886	7
090513	11:01	1	f.smeeze	1	8806	6
090513	11:01	1	f.threeth	2	2718	4
090513	11:01	1	f.sashe	3	2696	5
090513	11:01	1	f.blogue	4	3172	2
090513	11:01	1	f.sweem	5	3017	5
090513	11:01	1	f.joof	6	4894	4
090513	11:01	1	f.skoob	7	3768	3
090513	11:01	1	f.shrare	8	4160	4
090513	11:01	1	f.snave	9	1928	5
090513	11:01	1	f.kweed	10	5175	6
090513	11:01	1	f.thone	11	2415	7
090513	11:01	1	f.groor	12	1772	2
090513	11:01	1	f.blove	13	4107	6
090513	11:01	1	f.veege	14	3238	3
090513	11:01	1	f.shrashe	15	2266	2
090513	11:01	1	f.speege	16	2261	3
090513	11:01	1	f.chathe	17	4041	5
090513	11:01	1	f.togue	18	3477	6
090513	11:01	1	f.bleeve	19	3104	4
090513	11:01	1	f.peeb	20	4002	6
090513	11:01	1	f.gweeve	21	1929	4
090513	11:01	1	f.dathe	22	2185	5
090513	11:01	1	f.gwate	23	2831	4
090513	11:01	1	f.klague	24	4324	6
090513	11:01	1	f.gloshe	25	2693	4
090513	11:01	1	f.dreet	26	3551	5
090513	11:01	1	f.chooth	27	3375	6
090513	11:01	1	f.shoche	28	2294	3
090513	11:01	1	f.thoche	29	2992	3
090513	11:01	1	f.speesh	30	3846	2
090513	11:01	1	f.shrore	31	2747	2
090513	11:01	1	f.snashe	32	4147	4
090513	11:01	1	f.prate	33	4683	4
090513	11:01	1	f.tweep	34	2262	4
090513	11:01	1	f.gwote	35	2897	5
090513	11:01	1	f.klole	36	2531	4
090513	11:01	1	f.spague	37	3804	6
090513	11:01	1	f.koob	38	2706	4
090513	11:01	1	f.smeef	39	1812	3
090513	11:01	1	f.poob	40	5336	4
090513	11:01	1	f.twape	41	3002	6
090513	11:01	1	f.kwashe	42	2576	3
090513	11:01	1	f.sweel	43	3478	4
090513	11:01	1	f.smague	44	3169	4
090513	11:01	1	f.vake	45	3288	6
090513	11:01	1	f.gweeze	46	3483	5
090513	11:01	1	f.thooch	47	2134	3
090513	11:01	1	f.kleeg	48	2646	4
090513	11:01	1	f.skome	49	2658	6
090513	11:01	1	f.skooge	50	1926	2
090513	11:01	1	f.toosh	51	4502	5
090513	11:01	1	f.smome	52	2745	3
090513	11:01	1	f.gwathe	53	4657	4
090513	11:01	1	f.moosh	54	3941	6
090513	11:01	1	f.tweef	55	3446	6
090513	11:01	1	f.pobe	56	1970	5
090513	11:01	1	f.thwaze	57	4817	4
090513	11:01	1	f.smoog	58	2431	4
090513	11:01	1	f.speet	59	2499	4
090513	11:01	1	f.swove	60	5317	4
090513	11:01	1	howtype	1	8166	6
090513	12:25	1	speed	1	3600	50
090513	12:25	1	error	2	3126	100
090513	12:25	1	whichhand	3	9874	right
090513	12:25	1	f.greer	1	11492	4
090513	12:25	1	f.prool	2	4537	3
090513	12:25	1	f.joot	3	2809	5
090513	12:25	1	f.kwoom	4	2830	7
090513	12:25	1	f.freef	5	1708	5
090513	12:25	1	f.nogue	6	2885	4
090513	12:25	1	f.twoosh	7	3168	7
090513	12:25	1	f.drooge	8	2703	5
090513	12:25	1	f.zoshe	9	1784	8
090513	12:25	1	f.cheel	10	12095	6
090513	12:25	1	f.floof	11	2716	8
090513	12:25	1	f.smeeze	12	1573	7
090513	12:25	1	f.tweer	13	5532	4
090513	12:25	1	f.fague	14	4301	4
090513	12:25	1	f.kwase	15	2479	7
090513	12:25	1	f.thwoop	16	1682	8
090513	12:25	1	f.thoof	17	1340	8
090513	12:25	1	f.brooge	18	1683	7
090513	12:25	1	f.gwote	19	1743	4
090513	12:25	1	f.thwogue	20	1958	6
090513	12:25	1	f.mooth	21	3686	7
090513	12:25	1	f.dreed	22	1728	3
090513	12:25	1	f.broosh	23	1392	6
090513	12:25	1	f.trague	24	1846	3
090513	12:25	1	f.fleech	25	1730	3
090513	12:25	1	f.brabe	26	1730	2
090513	12:25	1	f.thwase	27	3459	3
090513	12:25	1	f.twoof	28	1533	7
090513	12:25	1	f.thashe	29	4582	4
090513	12:25	1	f.sneen	30	2013	6
090513	12:25	1	f.thooth	31	1186	6
090513	12:25	1	f.twague	32	2944	4
090513	12:25	1	f.spashe	33	2520	8
090513	12:25	1	f.gwoof	34	2521	7
090513	12:25	1	f.droot	35	1370	4
090513	12:25	1	f.kweed	36	3593	6
090513	12:25	1	f.thwage	37	1423	6
090513	12:25	1	f.shroom	38	1091	7
090513	12:25	1	f.poom	39	2229	4
090513	12:25	1	f.speep	40	3706	3
090513	12:25	1	f.dwoosh	41	1485	8
090513	12:25	1	f.pome	42	2470	4
090513	12:25	1	f.veeb	43	1314	3
090513	12:25	1	f.throove	44	3618	6
090513	12:25	1	f.thwole	45	1360	7
090513	12:25	1	f.ploof	46	1254	6
090513	12:25	1	f.klofe	47	1674	4
090513	12:25	1	f.thwabe	48	1285	3
090513	12:25	1	f.nathe	49	1015	3
090513	12:25	1	f.seech	50	1332	3
090513	12:25	1	f.thwashe	51	1900	5
090513	12:25	1	f.yeeb	52	1798	4
090513	12:25	1	f.kwoob	53	1418	4
090513	12:25	1	f.zofe	54	1448	4
090513	12:25	1	f.groche	55	3531	3
090513	12:25	1	f.wague	56	1468	3
090513	12:25	1	f.blothe	57	1311	3
090513	12:25	1	f.swogue	58	1512	5
090513	12:25	1	f.zove	59	1312	4
090513	12:25	1	f.glooch	60	1313	6
090513	12:25	1	r.indifferent	1	5807	5
090513	12:25	1	r.coffin	2	3598	1
090513	12:25	1	r.bath	3	2219	8
090513	12:25	1	r.muddy	4	2641	8
090513	12:25	1	r.cockroach	5	1757	1
090513	12:25	1	r.malaria	6	1379	1
090513	12:25	1	r.mantel	7	3147	5
090513	12:25	1	r.rattle	8	2259	4
090513	12:25	1	r.lawsuit	9	1798	2
090513	12:25	1	r.pamphlet	10	1996	5
090513	12:25	1	r.heart	11	1857	8
090513	12:25	1	r.bathroom	12	1836	5
090513	12:25	1	r.humane	13	2337	2
090513	12:25	1	r.windmill	14	2226	4
090513	12:25	1	r.perfection	15	1726	9
090513	12:25	1	r.cancer	16	1807	1
090513	12:25	1	r.betray	17	1604	2
090513	12:25	1	r.defeated	18	2202	1
090513	12:25	1	r.grenade	19	1919	1
090513	12:25	1	r.quiet	20	2377	6
090513	12:25	1	r.rabbit	21	2159	7
090513	12:25	1	r.sapphire	22	4438	6
090513	12:25	1	r.reverent	23	3026	5
090513	12:25	1	r.shadow	24	1960	6
090513	12:25	1	r.delight	25	2559	7
090513	12:25	1	r.blond	26	1654	3
090513	12:25	1	r.advantage	27	1626	7
090513	12:25	1	r.blister	28	1598	2
090513	12:25	1	r.money	29	1596	8
090513	12:25	1	r.soothe	30	1729	8
090513	12:25	1	r.custom	31	1426	5
090513	12:25	1	r.perfume	32	2447	6
090513	12:25	1	r.spray	33	2098	6
090513	12:25	1	r.industry	34	1348	3
090513	12:25	1	r.bathtub	35	1595	7
090513	12:25	1	r.quality	36	2593	7
090513	12:25	1	r.lawn	37	1335	6
090513	12:25	1	r.fun	38	1775	9
090513	12:25	1	r.deformed	39	2637	2
090513	12:25	1	r.twilight	40	1586	4
090513	12:25	1	r.damage	41	2304	1
090513	12:25	1	r.brutal	42	2112	1
090513	12:25	1	r.beautiful	43	1546	9
090513	12:25	1	r.capable	44	4323	6
090513	12:25	1	r.fur	45	1612	4
090513	12:25	1	r.illness	46	1385	2
090513	12:25	1	r.jewel	47	1743	8
090513	12:25	1	r.unit	48	2958	4
090513	12:25	1	r.rollercoaster	49	3238	2
090513	12:25	1	r.laughter	50	1683	9
090513	12:25	1	r.nun	51	1533	3
090513	12:25	1	r.putrid	52	3246	4
090513	12:25	1	r.romantic	53	1457	9
090513	12:25	1	r.friend	54	1237	9
090513	12:25	1	r.slow	55	2337	6
090513	12:25	1	r.sickness	56	1393	2
090513	12:25	1	r.dog	57	1655	9
090513	12:25	1	r.hotel	58	1411	6
090513	12:25	1	r.alley	59	1967	2
090513	12:25	1	r.breast	60	2799	5
090513	12:25	1	howtype	1	9754	7
090513	12:57	1	speed	1	3955	66
090513	12:57	1	error	2	3253	98
090513	12:57	1	whichhand	3	9916	right
090513	12:57	1	r.bland	1	12515	4
090513	12:57	1	r.party	2	7176	6
090513	12:57	1	r.silly	3	6088	7
090513	12:57	1	r.alive	4	5195	8
090513	12:57	1	r.snob	5	4970	5
090513	12:57	1	r.shark	6	3826	6
090513	12:57	1	r.humane	7	5527	6
090513	12:57	1	r.privacy	8	4929	5
090513	12:57	1	r.moment	9	9266	5
090513	12:57	1	r.impotent	10	4830	3
090513	12:57	1	r.thankful	11	5492	5
090513	12:57	1	r.month	12	4839	5
090513	12:57	1	r.triumph	13	3932	3
090513	12:57	1	r.friend	14	4157	5
090513	12:57	1	r.failure	15	4702	4
090513	12:57	1	r.chin	16	4544	4
090513	12:57	1	r.person	17	3928	4
090513	12:57	1	r.burdened	18	4681	3
090513	12:57	1	r.maggot	19	5741	4
090513	12:57	1	r.bake	20	5142	5
090513	12:57	1	r.wagon	21	5214	6
090513	12:57	1	r.errand	22	3797	5
090513	12:57	1	r.clouds	23	3555	5
090513	12:57	1	r.trouble	24	3795	4
090513	12:57	1	r.betray	25	3561	4
090513	12:57	1	r.romantic	26	6865	3
090513	12:57	1	r.milk	27	4269	5
090513	12:57	1	r.loved	28	3881	7
090513	12:57	1	r.young	29	4604	6
090513	12:57	1	r.unfaithful	30	3555	4
090513	12:57	1	r.sickness	31	2835	5
090513	12:57	1	r.sour	32	3439	4
090513	12:57	1	r.revolt	33	9172	5
090513	12:57	1	r.banner	34	2629	6
090513	12:57	1	r.foam	35	3506	6
090513	12:57	1	r.cold	36	4868	5
090513	12:57	1	r.natural	37	2912	6
090513	12:57	1	r.hostage	38	2769	4
090513	12:57	1	r.suffocate	39	4992	2
090513	12:57	1	r.affection	40	3039	6
090513	12:57	1	r.jelly	41	4203	7
090513	12:57	1	r.festive	42	3977	6
090513	12:57	1	r.crude	43	3617	6
090513	12:57	1	r.kind	44	1366	6
090513	12:57	1	r.spray	45	3077	5
090513	12:57	1	r.kids	46	3720	4
090513	12:57	1	r.dazzle	47	5473	6
090513	12:57	1	r.humor	48	2901	7
090513	12:57	1	r.perfection	49	4639	7
090513	12:57	1	r.pamphlet	50	4668	7
090513	12:57	1	r.ugly	51	14424	7
090513	12:57	1	r.nun	52	2384	6
090513	12:57	1	r.brutal	53	3215	4
090513	12:57	1	r.daylight	54	5667	6
090513	12:57	1	r.youth	55	2648	6
090513	12:57	1	r.prestige	56	2052	6
090513	12:57	1	r.grenade	57	2672	3
090513	12:57	1	r.teacher	58	2051	6
090513	12:57	1	r.save	59	4821	5
090513	12:57	1	r.injury	60	3813	3
090513	12:57	1	f.veeb	1	1755	6
090513	12:57	1	f.speet	2	2891	6
090513	12:57	1	f.treeg	3	2302	5
090513	12:57	1	f.zape	4	1632	4
090513	12:57	1	f.shrave	5	3804	5
090513	12:57	1	f.krabe	6	1897	6
090513	12:57	1	f.thwoop	7	2380	4
090513	12:57	1	f.grogue	8	3026	5
090513	12:57	1	f.dreeth	9	1997	4
090513	12:57	1	f.dwooth	10	6772	4
090513	12:57	1	f.gweeth	11	10964	4
090513	12:57	1	f.kobe	12	7182	6
090513	12:57	1	f.joosh	13	1502	6
090513	12:57	1	f.kwaze	14	2232	7
090513	12:57	1	f.moof	15	2205	3
090513	12:57	1	f.frooge	16	1786	3
090513	12:57	1	f.thwoot	17	1264	4
090513	12:57	1	f.droof	18	2155	3
090513	12:57	1	f.poosh	19	2378	4
090513	12:57	1	f.twoche	20	4377	2
090513	12:57	1	f.throom	21	4672	3
090513	12:57	1	f.greege	22	5036	3
090513	12:57	1	f.drathe	23	3122	4
090513	12:57	1	f.spame	24	3371	4
090513	12:57	1	f.tove	25	3426	6
090513	12:57	1	f.ploof	26	2143	4
090513	12:57	1	f.swoose	27	2471	3
090513	12:57	1	f.sposhe	28	2274	4
090513	12:57	1	f.kwame	29	3069	3
090513	12:57	1	f.preech	30	5287	4
090513	12:57	1	f.kreeth	31	10859	4
090513	12:57	1	f.dogue	32	2889	7
090513	12:57	1	f.spogue	33	2604	7
090513	12:57	1	f.shase	34	3746	3
090513	12:57	1	f.spoog	35	3162	6
090513	12:57	1	f.sneech	36	2305	3
090513	12:57	1	f.glage	37	3275	2
090513	12:57	1	f.swoze	38	4733	3
090513	12:57	1	f.gwoop	39	2112	5
090513	12:57	1	f.gache	40	2512	4
090513	12:57	1	f.blofe	41	3026	3
090513	12:57	1	f.proke	42	5678	2
090513	12:57	1	f.zeech	43	6354	4
090513	12:57	1	f.floog	44	16970	6
090513	12:57	1	f.stoosh	45	2399	4
090513	12:57	1	f.skase	46	2611	3
090513	12:57	1	f.frashe	47	1890	4
090513	12:57	1	f.swache	48	3683	3
090513	12:57	1	f.shooge	49	4294	3
090513	12:57	1	f.frope	50	3961	6
090513	12:57	1	f.shrooge	51	2073	3
090513	12:57	1	f.trame	52	3555	4
090513	12:57	1	f.thoke	53	3868	4
090513	12:57	1	f.spoove	54	2727	5
090513	12:57	1	f.slache	55	2656	4
090513	12:57	1	f.shrase	56	2004	4
090513	12:57	1	f.gwooch	57	5720	4
090513	12:57	1	f.smathe	58	2076	4
090513	12:57	1	f.kweed	59	2015	4
090513	12:57	1	f.twage	60	21466	4
090513	12:57	1	howtype	1	21930	7
090613	12:02	1	speed	1	3534	70
090613	12:02	1	error	2	2380	92
090613	12:02	1	whichhand	3	8629	Right
090613	12:02	1	f.moob	1	10880	2
090613	12:02	1	f.mofe	2	5375	4
090613	12:02	1	f.grogue	3	2902	1
090613	12:02	1	f.grooch	4	3256	1
090613	12:02	1	f.floove	5	2756	2
090613	12:02	1	f.klogue	6	5388	2
090613	12:02	1	f.joob	7	2908	5
090613	12:02	1	f.stathe	8	3190	6
090613	12:02	1	f.thoob	9	2732	4
090613	12:02	1	f.dwoove	10	1997	2
090613	12:02	1	f.throoth	11	4802	6
090613	12:02	1	f.kreeth	12	1953	7
090613	12:02	1	f.froosh	13	5688	7
090613	12:02	1	f.deech	14	2220	6
090613	12:02	1	f.blool	15	3225	4
090613	12:02	1	f.swoog	16	7902	5
090613	12:02	1	f.klache	17	3034	8
090613	12:02	1	f.toove	18	3406	5
090613	12:02	1	f.plothe	19	2725	3
090613	12:02	1	f.twathe	20	2686	2
090613	12:02	1	f.gloosh	21	3400	2
090613	12:02	1	f.sloose	22	4549	3
090613	12:02	1	f.freege	23	4271	6
090613	12:02	1	f.skogue	24	3091	3
090613	12:02	1	f.kleesh	25	3949	7
090613	12:02	1	f.fleesh	26	9125	8
090613	12:02	1	f.shrooge	27	4247	3
090613	12:02	1	f.flague	28	4708	6
090613	12:02	1	f.drore	29	3661	7
090613	12:02	1	f.dwame	30	4008	6
090613	12:02	1	f.tague	31	3743	4
090613	12:02	1	f.bague	32	6766	4
090613	12:02	1	f.skoove	33	3345	6
090613	12:02	1	f.voge	34	2687	8
090613	12:02	1	f.slade	35	2977	9
090613	12:02	1	f.dwole	36	2889	6
090613	12:02	1	f.krofe	37	2923	8
090613	12:02	1	f.smeege	38	5612	5
090613	12:02	1	f.thwoosh	39	2418	8
090613	12:02	1	f.zeech	40	2903	7
090613	12:02	1	f.kleep	41	2193	7
090613	12:02	1	f.gweeth	42	1918	8
090613	12:02	1	f.gweet	43	2456	8
090613	12:02	1	f.kreeg	44	2003	7
090613	12:02	1	f.blale	45	3184	7
090613	12:02	1	f.dofe	46	2407	2
090613	12:02	1	f.broshe	47	5941	6
090613	12:02	1	f.shreem	48	2399	7
090613	12:02	1	f.thweem	49	2618	7
090613	12:02	1	f.gache	50	3120	8
090613	12:02	1	f.shroom	51	5688	6
090613	12:02	1	f.thone	52	2548	6
090613	12:02	1	f.drage	53	1932	9
090613	12:02	1	f.zoob	54	2450	2
090613	12:02	1	f.slafe	55	4198	8
090613	12:02	1	f.snobe	56	1813	8
090613	12:02	1	f.gwate	57	3081	7
090613	12:02	1	f.glooge	58	2542	3
090613	12:02	1	f.droche	59	2924	3
090613	12:02	1	f.fafe	60	4092	5
090613	12:02	1	r.assault	1	19102	1
090613	12:02	1	r.morbid	2	2238	1
090613	12:02	1	r.weapon	3	1586	2
090613	12:02	1	r.naked	4	3497	3
090613	12:02	1	r.wicked	5	2472	1
090613	12:02	1	r.violin	6	4501	8
090613	12:02	1	r.tree	7	2855	8
090613	12:02	1	r.dirty	8	1891	2
090613	12:02	1	r.protected	9	3245	8
090613	12:02	1	r.weary	10	1891	3
090613	12:02	1	r.nun	11	2516	2
090613	12:02	1	r.fraud	12	2038	2
090613	12:02	1	r.syphilis	13	6090	1
090613	12:02	1	r.fungus	14	1413	1
090613	12:02	1	r.waste	15	1939	4
090613	12:02	1	r.sissy	16	3867	3
090613	12:02	1	r.delight	17	2542	9
090613	12:02	1	r.golfer	18	2206	3
090613	12:02	1	r.modest	19	3380	8
090613	12:02	1	r.dream	20	1777	9
090613	12:02	1	r.god	21	2201	9
090613	12:02	1	r.excitement	22	1655	9
090613	12:02	1	r.chin	23	2418	5
090613	12:02	1	r.spirit	24	2006	8
090613	12:02	1	r.tank	25	5541	3
090613	12:02	1	r.comedy	26	1927	9
090613	12:02	1	r.narcotic	27	2398	1
090613	12:02	1	r.obesity	28	1748	1
090613	12:02	1	r.scurvy	29	3251	1
090613	12:02	1	r.impotent	30	2184	3
090613	12:02	1	r.spouse	31	2567	6
090613	12:02	1	r.person	32	3557	5
090613	12:02	1	r.quality	33	2085	8
090613	12:02	1	r.mother	34	2447	8
090613	12:02	1	r.boy	35	3420	5
090613	12:02	1	r.idiot	36	2081	2
090613	12:02	1	r.stomach	37	2515	3
090613	12:02	1	r.bees	38	2346	3
090613	12:02	1	r.selfish	39	1948	2
090613	12:02	1	r.fall	40	2852	8
090613	12:02	1	r.radiant	41	1583	9
090613	12:02	1	r.revolt	42	1693	1
090613	12:02	1	r.nuisance	43	2031	2
090613	12:02	1	r.louse	44	2299	1
090613	12:02	1	r.justice	45	2310	8
090613	12:02	1	r.tragedy	46	2774	1
090613	12:02	1	r.contempt	47	2717	2
090613	12:02	1	r.child	48	4215	5
090613	12:02	1	r.guilty	49	2100	3
090613	12:02	1	r.tower	50	2966	6
090613	12:02	1	r.starving	51	1501	1
090613	12:02	1	r.coast	52	2071	9
090613	12:02	1	r.suicide	53	1530	1
090613	12:02	1	r.money	54	1985	8
090613	12:02	1	r.immoral	55	1832	3
090613	12:02	1	r.hate	56	2197	1
090613	12:02	1	r.inspire	57	1674	9
090613	12:02	1	r.home	58	1614	9
090613	12:02	1	r.penalty	59	1826	3
090613	12:02	1	r.house	60	3095	8
090613	12:02	1	howtype	1	9214	6
090613	12:53	1	speed	1	3751	78
090613	12:53	1	error	2	2678	93
090613	12:53	1	whichhand	3	7217	Right
090613	12:53	1	f.prook	1	7544	4
090613	12:53	1	f.twoob	2	4362	4
090613	12:53	1	f.snone	3	3722	6
090613	12:53	1	f.stashe	4	2867	5
090613	12:53	1	f.thweeze	5	3671	3
090613	12:53	1	f.trook	6	3130	7
090613	12:53	1	f.jeef	7	3019	4
090613	12:53	1	f.plooth	8	2416	6
090613	12:53	1	f.pothe	9	2653	4
090613	12:53	1	f.glose	10	2089	8
090613	12:53	1	f.feeb	11	2907	6
090613	12:53	1	f.smove	12	4189	3
090613	12:53	1	f.smothe	13	2676	3
090613	12:53	1	f.plook	14	2559	6
090613	12:53	1	f.froop	15	3022	5
090613	12:53	1	f.greege	16	2732	3
090613	12:53	1	f.veem	17	2005	4
090613	12:53	1	f.dwoosh	18	2738	5
090613	12:53	1	f.zoshe	19	3395	6
090613	12:53	1	f.broosh	20	2129	3
090613	12:53	1	f.leel	21	2217	2
090613	12:53	1	f.drore	22	2046	2
090613	12:53	1	f.boshe	23	3106	3
090613	12:53	1	f.fape	24	2268	6
090613	12:53	1	f.snode	25	2295	7
090613	12:53	1	f.swoose	26	2168	3
090613	12:53	1	f.pame	27	1880	4
090613	12:53	1	f.speet	28	2426	3
090613	12:53	1	f.cheeg	29	2494	3
090613	12:53	1	f.spobe	30	2520	2
090613	12:53	1	f.dweeth	31	2641	2
090613	12:53	1	f.thool	32	1830	2
090613	12:53	1	f.stoosh	33	2026	3
090613	12:53	1	f.yame	34	2206	5
090613	12:53	1	f.blooge	35	1940	4
090613	12:53	1	f.brooge	36	3052	3
090613	12:53	1	f.thrague	37	2328	4
090613	12:53	1	f.thope	38	2409	3
090613	12:53	1	f.soshe	39	2222	6
090613	12:53	1	f.stobe	40	2523	6
090613	12:53	1	f.kwoche	41	2901	6
090613	12:53	1	f.grooge	42	2742	3
090613	12:53	1	f.vave	43	2150	4
090613	12:53	1	f.shrove	44	2934	8
090613	12:53	1	f.theep	45	2999	4
090613	12:53	1	f.gwope	46	2165	5
090613	12:53	1	f.floog	47	5107	6
090613	12:53	1	f.spove	48	2886	9
090613	12:53	1	f.dwooge	49	5625	5
090613	12:53	1	f.feeg	50	2822	8
090613	12:53	1	f.sneese	51	1971	9
090613	12:53	1	f.sleel	52	3602	4
090613	12:53	1	f.thoop	53	2465	6
090613	12:53	1	f.yoot	54	2171	9
090613	12:53	1	f.sague	55	2147	9
090613	12:53	1	f.greeg	56	2810	4
090613	12:53	1	f.floop	57	2144	5
090613	12:53	1	f.thoove	58	2727	4
090613	12:53	1	f.skeeb	59	2816	6
090613	12:53	1	f.spoge	60	3285	2
090613	12:53	1	r.lonely	1	2680	6
090613	12:53	1	r.concentrate	2	2067	9
090613	12:53	1	r.arm	3	2294	9
090613	12:53	1	r.stench	4	1903	9
090613	12:53	1	r.kids	5	1633	9
090613	12:53	1	r.hate	6	2573	9
090613	12:53	1	r.girl	7	2540	6
090613	12:53	1	r.perfume	8	1981	8
090613	12:53	1	r.inferior	9	1795	9
090613	12:53	1	r.lamp	10	2017	9
090613	12:53	1	r.grin	11	2198	8
090613	12:53	1	r.wink	12	1604	9
090613	12:53	1	r.fraud	13	2249	7
090613	12:53	1	r.deserter	14	3053	7
090613	12:53	1	r.helpless	15	3025	6
090613	12:53	1	r.habit	16	3190	9
090613	12:53	1	r.board	17	2853	6
090613	12:53	1	r.cut	18	4025	9
090613	12:53	1	r.intellect	19	2158	9
090613	12:53	1	r.hopeful	20	1414	9
090613	12:53	1	r.virtue	21	3547	8
090613	12:53	1	r.tease	22	2475	6
090613	12:53	1	r.sin	23	4110	9
090613	12:53	1	r.sleep	24	5568	9
090613	12:53	1	r.icebox	25	1968	9
090613	12:53	1	r.circus	26	2439	9
090613	12:53	1	r.penalty	27	2843	4
090613	12:53	1	r.breeze	28	2711	5
090613	12:53	1	r.beverage	29	1960	9
090613	12:53	1	r.crime	30	3039	2
090613	12:53	1	r.decorate	31	2260	9
090613	12:53	1	r.gripe	32	3119	1
090613	12:53	1	r.trunk	33	3840	3
090613	12:53	1	r.diver	34	3429	5
090613	12:53	1	r.rough	35	2986	2
090613	12:53	1	r.alert	36	2824	8
090613	12:53	1	r.butterfly	37	2646	9
090613	12:53	1	r.rock	38	1777	9
090613	12:53	1	r.obscene	39	2848	6
090613	12:53	1	r.bowl	40	3052	4
090613	12:53	1	r.outstanding	41	3528	9
090613	12:53	1	r.crutch	42	4449	4
090613	12:53	1	r.flower	43	2549	9
090613	12:53	1	r.regretful	44	3109	9
090613	12:53	1	r.space	45	2366	9
090613	12:53	1	r.river	46	1901	9
090613	12:53	1	r.humiliate	47	2263	3
090613	12:53	1	r.delayed	48	3154	3
090613	12:53	1	r.queen	49	2642	8
090613	12:53	1	r.admired	50	1910	9
090613	12:53	1	r.bright	51	1663	9
090613	12:53	1	r.malice	52	2770	4
090613	12:53	1	r.morbid	53	4377	8
090613	12:53	1	r.alive	54	2144	9
090613	12:53	1	r.tobacco	55	2720	2
090613	12:53	1	r.cottage	56	2466	9
090613	12:53	1	r.crushed	57	2949	4
090613	12:53	1	r.passion	58	1901	9
090613	12:53	1	r.paper	59	2742	3
090613	12:53	1	r.wine	60	5359	5
090613	12:53	1	howtype	1	9461	7
090913	09:57	1	speed	1	8797	12
090913	09:57	1	error	2	8735	25
090913	09:57	1	whichhand	3	22889	right
090913	09:57	1	r.impair	1	31357	5
090913	09:57	1	r.stomach	2	3271	5
090913	09:57	1	r.vision	3	3738	5
090913	09:57	1	r.soothe	4	3595	7
090913	09:57	1	r.dazzle	5	3433	5
090913	09:57	1	r.bowl	6	2702	5
090913	09:57	1	r.terrorist	7	3768	1
090913	09:57	1	r.sweetheart	8	2415	9
090913	09:57	1	r.jealousy	9	2484	1
090913	09:57	1	r.sin	10	2511	1
090913	09:57	1	r.inferior	11	2799	5
090913	09:57	1	r.unfaithful	12	4581	4
090913	09:57	1	r.twilight	13	2861	7
090913	09:57	1	r.thrill	14	2264	7
090913	09:57	1	r.achievement	15	3419	8
090913	09:57	1	r.neglect	16	4401	5
090913	09:57	1	r.hard	17	2663	6
090913	09:57	1	r.orchestra	18	2258	9
090913	09:57	1	r.desire	19	2086	7
090913	09:57	1	r.trophy	20	1704	7
090913	09:57	1	r.life	21	2402	8
090913	09:57	1	r.radio	22	4352	5
090913	09:57	1	r.trunk	23	1872	5
090913	09:57	1	r.vandal	24	1891	2
090913	09:57	1	r.trash	25	1901	3
090913	09:57	1	r.rotten	26	1999	2
090913	09:57	1	r.embarrassed	27	2613	4
090913	09:57	1	r.child	28	2010	8
090913	09:57	1	r.luscious	29	3839	5
090913	09:57	1	r.murderer	30	2187	1
090913	09:57	1	r.father	31	2458	8
090913	09:57	1	r.appliance	32	2214	8
090913	09:57	1	r.color	33	2139	6
090913	09:57	1	r.learn	34	2051	7
090913	09:57	1	r.disgusted	35	1783	3
090913	09:57	1	r.building	36	1605	5
090913	09:57	1	r.tamper	37	1874	5
090913	09:57	1	r.promotion	38	2365	6
090913	09:57	1	r.defeated	39	2260	6
090913	09:57	1	r.lighthouse	40	3520	8
090913	09:57	1	r.pancakes	41	1529	8
090913	09:57	1	r.cake	42	1785	7
090913	09:57	1	r.mind	43	1702	7
090913	09:57	1	r.plane	44	1913	7
090913	09:57	1	r.strong	45	1314	7
090913	09:57	1	r.sailboat	46	1803	7
090913	09:57	1	r.army	47	3360	4
090913	09:57	1	r.idea	48	2263	5
090913	09:57	1	r.salad	49	1883	7
090913	09:57	1	r.method	50	1645	5
090913	09:57	1	r.whistle	51	2160	5
090913	09:57	1	r.paradise	52	2311	8
090913	09:57	1	r.dreary	53	2761	5
090913	09:57	1	r.book	54	1590	8
090913	09:57	1	r.pillow	55	1894	5
090913	09:57	1	r.save	56	1879	6
090913	09:57	1	r.paralysis	57	3098	2
090913	09:57	1	r.crutch	58	2788	5
090913	09:57	1	r.clumsy	59	2434	5
090913	09:57	1	r.truth	60	3623	6
090913	09:57	1	f.yeeg	1	2207	3
090913	09:57	1	f.dwood	2	2613	4
090913	09:57	1	f.zooth	3	1626	6
090913	09:57	1	f.kwave	4	3174	7
090913	09:57	1	f.klafe	5	1909	5
090913	09:57	1	f.frage	6	1526	5
090913	09:57	1	f.smool	7	3422	5
090913	09:57	1	f.flobe	8	1708	5
090913	09:57	1	f.thrabe	9	1910	4
090913	09:57	1	f.gweech	10	3038	4
090913	09:57	1	f.plofe	11	3387	6
090913	09:57	1	f.yeeze	12	2634	6
090913	09:57	1	f.gleege	13	1854	5
090913	09:57	1	f.slame	14	3050	2
090913	09:57	1	f.blabe	15	3742	6
090913	09:57	1	f.wogue	16	3046	6
090913	09:57	1	f.swave	17	1858	6
090913	09:57	1	f.zothe	18	1678	5
090913	09:57	1	f.lole	19	3136	6
090913	09:57	1	f.ploop	20	2224	5
090913	09:57	1	f.floosh	21	2646	4
090913	09:57	1	f.blathe	22	1450	4
090913	09:57	1	f.ploshe	23	2557	7
090913	09:57	1	f.gleesh	24	2605	5
090913	09:57	1	f.prame	25	2635	5
090913	09:57	1	f.proot	26	1063	5
090913	09:57	1	f.pleeve	27	1306	5
090913	09:57	1	f.skothe	28	1475	5
090913	09:57	1	f.smeesh	29	1214	5
090913	09:57	1	f.speem	30	1219	5
090913	09:57	1	f.froche	31	944	5
090913	09:57	1	f.preet	32	1591	5
090913	09:57	1	f.dwoog	33	1316	5
090913	09:57	1	f.prake	34	1222	5
090913	09:57	1	f.drote	35	1674	4
090913	09:57	1	f.freef	36	1813	6
090913	09:57	1	f.smeese	37	2154	5
090913	09:57	1	f.stathe	38	1234	5
090913	09:57	1	f.sneed	39	1030	5
090913	09:57	1	f.pame	40	1042	5
090913	09:57	1	f.thofe	41	806	5
090913	09:57	1	f.yoob	42	851	5
090913	09:57	1	f.throthe	43	1302	5
090913	09:57	1	f.thafe	44	1520	5
090913	09:57	1	f.broosh	45	1257	5
090913	09:57	1	f.foog	46	1436	5
090913	09:57	1	f.spape	47	952	5
090913	09:57	1	f.gache	48	1272	5
090913	09:57	1	f.bleesh	49	770	5
090913	09:57	1	f.gwoor	50	633	5
090913	09:57	1	f.zade	51	541	5
090913	09:57	1	f.spote	52	469	5
090913	09:57	1	f.gwooth	53	590	5
090913	09:57	1	f.peeb	54	805	5
090913	09:57	1	f.kreeb	55	626	5
090913	09:57	1	f.kwooch	56	622	5
090913	09:57	1	f.tove	57	755	5
090913	09:57	1	f.smeep	58	760	5
090913	09:57	1	f.deef	59	720	5
090913	09:57	1	f.deeb	60	577	5
090913	09:57	1	howtype	1	9093	1
091013	09:13	1	speed	1	14211	47
091013	09:13	1	error	2	2199	93
091013	09:13	1	whichhand	3	13261	left
091013	09:13	1	r.flirt	1	5818	8
091013	09:13	1	r.slow	2	5063	5
091013	09:13	1	r.suicide	3	2147	1
091013	09:13	1	r.terrific	4	3226	9
091013	09:13	1	r.natural	5	2095	9
091013	09:13	1	r.brave	6	1425	9
091013	09:13	1	r.stress	7	3990	3
091013	09:13	1	r.rancid	8	3813	5
091013	09:13	1	r.cook	9	1746	8
091013	09:13	1	r.diamond	10	1802	9
091013	09:13	1	r.comedy	11	1424	9
091013	09:13	1	r.revolt	12	3468	5
091013	09:13	1	r.icebox	13	1832	5
091013	09:13	1	r.despairing	14	2396	8
091013	09:13	1	r.aloof	15	2106	5
091013	09:13	1	r.home	16	1315	9
091013	09:13	1	r.dream	17	1188	9
091013	09:13	1	r.pain	18	2226	2
091013	09:13	1	r.dress	19	2191	6
091013	09:13	1	r.sentiment	20	2301	6
091013	09:13	1	r.masturbate	21	1951	5
091013	09:13	1	r.scurvy	22	2254	6
091013	09:13	1	r.pancakes	23	1826	7
091013	09:13	1	r.history	24	1895	4
091013	09:13	1	r.intruder	25	2519	2
091013	09:13	1	r.corridor	26	4129	5
091013	09:13	1	r.bomb	27	1825	1
091013	09:13	1	r.scapegoat	28	2606	2
091013	09:13	1	r.messy	29	2308	2
091013	09:13	1	r.massacre	30	3733	6
091013	09:13	1	r.gender	31	2342	5
091013	09:13	1	r.stagnant	32	2527	2
091013	09:13	1	r.injury	33	1366	2
091013	09:13	1	r.greed	34	1182	2
091013	09:13	1	r.penalty	35	1380	2
091013	09:13	1	r.failure	36	2802	1
091013	09:13	1	r.riot	37	1520	1
091013	09:13	1	r.rough	38	904	1
091013	09:13	1	r.penis	39	2529	7
091013	09:13	1	r.ship	40	2290	6
091013	09:13	1	r.humiliate	41	2412	1
091013	09:13	1	r.wicked	42	1665	1
091013	09:13	1	r.church	43	1452	9
091013	09:13	1	r.narcotic	44	2320	2
091013	09:13	1	r.easy	45	3921	9
091013	09:13	1	r.politeness	46	1538	9
091013	09:13	1	r.poverty	47	2602	2
091013	09:13	1	r.defeated	48	4640	5
091013	09:13	1	r.elated	49	2702	4
091013	09:13	1	r.waterfall	50	1527	7
091013	09:13	1	r.morgue	51	2872	2
091013	09:13	1	r.leisurely	52	2931	5
091013	09:13	1	r.liberty	53	1627	7
091013	09:13	1	r.savior	54	1968	9
091013	09:13	1	r.alive	55	1143	9
091013	09:13	1	r.seat	56	3070	8
091013	09:13	1	r.selfish	57	2569	2
091013	09:13	1	r.admired	58	4336	7
091013	09:13	1	r.death	59	1969	1
091013	09:13	1	r.tender	60	1799	5
091013	09:13	1	f.zeeth	1	7718	5
091013	09:13	1	f.thwape	2	3585	5
091013	09:13	1	f.shrore	3	4120	5
091013	09:13	1	f.fleeb	4	2058	5
091013	09:13	1	f.throok	5	1006	5
091013	09:13	1	f.swooze	6	2803	5
091013	09:13	1	f.dothe	7	2193	3
091013	09:13	1	f.gweeth	8	1550	5
091013	09:13	1	f.drofe	9	1286	4
091013	09:13	1	f.zope	10	1648	5
091013	09:13	1	f.mafe	11	972	5
091013	09:13	1	f.joche	12	2210	5
091013	09:13	1	f.thware	13	958	4
091013	09:13	1	f.dwothe	14	3670	4
091013	09:13	1	f.troke	15	1810	4
091013	09:13	1	f.kroshe	16	2335	5
091013	09:13	1	f.jeeb	17	431	5
091013	09:13	1	f.glooth	18	875	5
091013	09:13	1	f.slool	19	693	5
091013	09:13	1	f.doof	20	958	5
091013	09:13	1	f.groob	21	924	5
091013	09:13	1	f.swool	22	931	5
091013	09:13	1	f.krache	23	1323	5
091013	09:13	1	f.twool	24	724	5
091013	09:13	1	f.dwoose	25	892	5
091013	09:13	1	f.roshe	26	590	5
091013	09:13	1	f.kweeze	27	524	5
091013	09:13	1	f.yoshe	28	501	5
091013	09:13	1	f.krashe	29	502	5
091013	09:13	1	f.dreeb	30	535	5
091013	09:13	1	f.threeb	31	639	5
091013	09:13	1	f.kloob	32	515	5
091013	09:13	1	f.nafe	33	835	5
091013	09:13	1	f.thague	34	1159	4
091013	09:13	1	f.slafe	35	527	4
091013	09:13	1	f.chome	36	1509	5
091013	09:13	1	f.klabe	37	1519	4
091013	09:13	1	f.thave	38	2071	4
091013	09:13	1	f.stoob	39	3002	5
091013	09:13	1	f.broshe	40	712	5
091013	09:13	1	f.kloosh	41	992	5
091013	09:13	1	f.gwode	42	5453	4
091013	09:13	1	f.glooch	43	2058	4
091013	09:13	1	f.glooge	44	1446	5
091013	09:13	1	f.dwoshe	45	666	5
091013	09:13	1	f.swoge	46	364	5
091013	09:13	1	f.flofe	47	787	5
091013	09:13	1	f.gathe	48	576	5
091013	09:13	1	f.floob	49	662	5
091013	09:13	1	f.shroshe	50	633	5
091013	09:13	1	f.tweesh	51	1052	4
091013	09:13	1	f.keeb	52	768	4
091013	09:13	1	f.dathe	53	2311	5
091013	09:13	1	f.snane	54	752	5
091013	09:13	1	f.zashe	55	535	5
091013	09:13	1	f.jome	56	2358	6
091013	09:13	1	f.seesh	57	1398	5
091013	09:13	1	f.sloche	58	835	4
091013	09:13	1	f.snobe	59	2727	4
091013	09:13	1	f.dreet	60	2664	3
091013	09:13	1	howtype	1	6546	6
091013	12:22	1	speed	1	3969	37
091013	12:22	1	error	2	2440	89
091013	12:22	1	whichhand	3	11005	right
091013	12:22	1	r.boy	1	5764	6
091013	12:22	1	r.hostile	2	3524	3
091013	12:22	1	r.guillotine	3	2253	1
091013	12:22	1	r.measles	4	3785	3
091013	12:22	1	r.cannon	5	2448	3
091013	12:22	1	r.inspire	6	2396	7
091013	12:22	1	r.sheltered	7	2706	5
091013	12:22	1	r.bake	8	2299	6
091013	12:22	1	r.treat	9	2629	6
091013	12:22	1	r.damage	10	1810	4
091013	12:22	1	r.tobacco	11	1719	5
091013	12:22	1	r.orchestra	12	2519	7
091013	12:22	1	r.pizza	13	1929	7
091013	12:22	1	r.miracle	14	2041	8
091013	12:22	1	r.injury	15	1861	3
091013	12:22	1	r.cane	16	2024	3
091013	12:22	1	r.music	17	2165	6
091013	12:22	1	r.time	18	2060	5
091013	12:22	1	r.crude	19	1735	4
091013	12:22	1	r.insane	20	2223	3
091013	12:22	1	r.grime	21	1756	3
091013	12:22	1	r.cemetery	22	1908	1
091013	12:22	1	r.free	23	2022	9
091013	12:22	1	r.ace	24	3539	5
091013	12:22	1	r.killer	25	1603	2
091013	12:22	1	r.illness	26	1657	3
091013	12:22	1	r.breeze	27	2524	6
091013	12:22	1	r.carcass	28	3078	2
091013	12:22	1	r.frustrated	29	2216	3
091013	12:22	1	r.tidy	30	1901	5
091013	12:22	1	r.perfection	31	2063	6
091013	12:22	1	r.absurd	32	1690	4
091013	12:22	1	r.material	33	1404	5
091013	12:22	1	r.rancid	34	1985	3
091013	12:22	1	r.loser	35	1240	4
091013	12:22	1	r.jug	36	2148	5
091013	12:22	1	r.patent	37	4468	5
091013	12:22	1	r.prick	38	2279	4
091013	12:22	1	r.easy	39	1626	6
091013	12:22	1	r.sad	40	1351	4
091013	12:22	1	r.dustpan	41	2342	4
091013	12:22	1	r.mail	42	1382	5
091013	12:22	1	r.erotic	43	1876	6
091013	12:22	1	r.month	44	1799	4
091013	12:22	1	r.flood	45	2396	3
091013	12:22	1	r.lie	46	2146	2
091013	12:22	1	r.intruder	47	2970	2
091013	12:22	1	r.good	48	2961	6
091013	12:22	1	r.menace	49	1873	3
091013	12:22	1	r.respectful	50	1651	6
091013	12:22	1	r.hand	51	1807	5
091013	12:22	1	r.funeral	52	1597	1
091013	12:22	1	r.gold	53	3634	6
091013	12:22	1	r.flirt	54	2759	7
091013	12:22	1	r.gangrene	55	2087	2
091013	12:22	1	r.malice	56	1713	3
091013	12:22	1	r.dazzle	57	1818	7
091013	12:22	1	r.item	58	1303	5
091013	12:22	1	r.fabric	59	1328	5
091013	12:22	1	r.crutch	60	1728	4
091013	12:22	1	f.brabe	1	9418	5
091013	12:22	1	f.thwave	2	1873	5
091013	12:22	1	f.sleeb	3	2332	6
091013	12:22	1	f.shrage	4	2492	5
091013	12:22	1	f.smoon	5	3502	4
091013	12:22	1	f.poog	6	1848	5
091013	12:22	1	f.theesh	7	1900	6
091013	12:22	1	f.shroose	8	3350	6
091013	12:22	1	f.vape	9	10973	6
091013	12:22	1	f.threef	10	5799	4
091013	12:22	1	f.neeth	11	3550	6
091013	12:22	1	f.gweesh	12	2534	5
091013	12:22	1	f.skeeve	13	1566	4
091013	12:22	1	f.gloche	14	1989	6
091013	12:22	1	f.gwafe	15	1611	4
091013	12:22	1	f.shreeve	16	1409	5
091013	12:22	1	f.yoosh	17	1462	6
091013	12:22	1	f.spabe	18	1489	4
091013	12:22	1	f.trofe	19	2171	4
091013	12:22	1	f.jague	20	2850	6
091013	12:22	1	f.dwone	21	2477	5
091013	12:22	1	f.peeg	22	1616	4
091013	12:22	1	f.proshe	23	2501	6
091013	12:22	1	f.shrothe	24	2975	6
091013	12:22	1	f.snoof	25	1598	5
091013	12:22	1	f.shrate	26	1924	4
091013	12:22	1	f.glague	27	1285	5
091013	12:22	1	f.zote	28	1135	5
091013	12:22	1	f.slome	29	1367	4
091013	12:22	1	f.yone	30	3061	6
091013	12:22	1	f.looch	31	1801	7
091013	12:22	1	f.kreer	32	2294	4
091013	12:22	1	f.plooth	33	1280	5
091013	12:22	1	f.wooth	34	3162	5
091013	12:22	1	f.snoon	35	2114	4
091013	12:22	1	f.grashe	36	1547	4
091013	12:22	1	f.klode	37	1298	6
091013	12:22	1	f.kwoche	38	1724	4
091013	12:22	1	f.troke	39	1004	5
091013	12:22	1	f.gleeg	40	1714	4
091013	12:22	1	f.bloob	41	1450	6
091013	12:22	1	f.yoche	42	2038	4
091013	12:22	1	f.bloosh	43	1634	6
091013	12:22	1	f.twose	44	1343	4
091013	12:22	1	f.thate	45	1399	6
091013	12:22	1	f.glake	46	1380	5
091013	12:22	1	f.smave	47	1354	4
091013	12:22	1	f.krague	48	1146	5
091013	12:22	1	f.joob	49	1281	6
091013	12:22	1	f.shroon	50	1971	6
091013	12:22	1	f.moof	51	1714	6
091013	12:22	1	f.neeb	52	1539	4
091013	12:22	1	f.shrape	53	963	5
091013	12:22	1	f.voof	54	1186	4
091013	12:22	1	f.dwague	55	1792	4
091013	12:22	1	f.thrague	56	1470	4
091013	12:22	1	f.gooth	57	1353	5
091013	12:22	1	f.kreef	58	1312	4
091013	12:22	1	f.zeeve	59	1065	5
091013	12:22	1	f.shroge	60	1076	6
091013	12:22	1	howtype	1	11261	6
091013	13:01	1	speed	1	3362	89
091013	13:01	1	error	2	3098	93
091013	13:01	1	whichhand	3	6541	left
091013	13:01	1	r.black	1	18874	4
091013	13:01	1	r.impotent	2	22932	1
091013	13:01	1	r.execution	3	3091	1
091013	13:01	1	r.vomit	4	2757	1
091013	13:01	1	r.freedom	5	2389	9
091013	13:01	1	r.mountain	6	2980	6
091013	13:01	1	r.shy	7	2250	4
091013	13:01	1	r.nightmare	8	2070	2
091013	13:01	1	r.liberty	9	1681	9
091013	13:01	1	r.maggot	10	1803	1
091013	13:01	1	r.moral	11	2289	9
091013	13:01	1	r.adult	12	2331	7
091013	13:01	1	r.venom	13	1924	3
091013	13:01	1	r.elbow	14	2108	5
091013	13:01	1	r.green	15	1286	5
091013	13:01	1	r.insult	16	2472	3
091013	13:01	1	r.grateful	17	2148	8
091013	13:01	1	r.cellar	18	3603	3
091013	13:01	1	r.carcass	19	2281	2
091013	13:01	1	r.autumn	20	4619	8
091013	13:01	1	r.violin	21	2009	8
091013	13:01	1	r.icebox	22	1879	2
091013	13:01	1	r.alive	23	2721	9
091013	13:01	1	r.patriot	24	1202	9
091013	13:01	1	r.luxury	25	1623	9
091013	13:01	1	r.life	26	2586	8
091013	13:01	1	r.termite	27	3921	2
091013	13:01	1	r.home	28	2002	5
091013	13:01	1	r.man	29	3264	7
091013	13:01	1	r.jelly	30	2507	6
091013	13:01	1	r.chance	31	2605	3
091013	13:01	1	r.face	32	5691	5
091013	13:01	1	r.scorpion	33	1974	8
091013	13:01	1	r.dustpan	34	1941	4
091013	13:01	1	r.diploma	35	2942	8
091013	13:01	1	r.confused	36	1470	3
091013	13:01	1	r.gossip	37	3401	1
091013	13:01	1	r.intellect	38	2183	9
091013	13:01	1	r.cold	39	2254	7
091013	13:01	1	r.blase	40	3369	5
091013	13:01	1	r.disloyal	41	2513	1
091013	13:01	1	r.proud	42	2114	7
091013	13:01	1	r.trouble	43	1883	3
091013	13:01	1	r.hat	44	2501	8
091013	13:01	1	r.stress	45	1551	1
091013	13:01	1	r.seasick	46	1414	1
091013	13:01	1	r.strong	47	1771	9
091013	13:01	1	r.hospital	48	3946	2
091013	13:01	1	r.hydrant	49	2722	5
091013	13:01	1	r.sheltered	50	2204	4
091013	13:01	1	r.health	51	2217	8
091013	13:01	1	r.ugly	52	1574	1
091013	13:01	1	r.lost	53	1557	1
091013	13:01	1	r.news	54	5957	5
091013	13:01	1	r.nature	55	1637	9
091013	13:01	1	r.alimony	56	3346	1
091013	13:01	1	r.kerchief	57	2642	5
091013	13:01	1	r.excellence	58	1550	9
091013	13:01	1	r.win	59	1326	8
091013	13:01	1	r.champion	60	1263	9
091013	13:01	1	f.poom	1	4465	3
091013	13:01	1	f.pooth	2	4228	3
091013	13:01	1	f.plashe	3	1594	4
091013	13:01	1	f.sleef	4	2255	4
091013	13:01	1	f.snoog	5	3195	2
091013	13:01	1	f.slore	6	1641	1
091013	13:01	1	f.krogue	7	3685	3
091013	13:01	1	f.cheel	8	5592	6
091013	13:01	1	f.thweef	9	1999	1
091013	13:01	1	f.proshe	10	6260	4
091013	13:01	1	f.voove	11	4177	6
091013	13:01	1	f.shroshe	12	5823	6
091013	13:01	1	f.threer	13	4630	5
091013	13:01	1	f.dweese	14	2259	3
091013	13:01	1	f.twooth	15	4559	6
091013	13:01	1	f.floof	16	1950	8
091013	13:01	1	f.thwafe	17	3678	4
091013	13:01	1	f.sloshe	18	2153	3
091013	13:01	1	f.yame	19	5065	7
091013	13:01	1	f.krobe	20	2364	2
091013	13:01	1	f.preek	21	2404	7
091013	13:01	1	f.twoob	22	2049	3
091013	13:01	1	f.blobe	23	2925	4
091013	13:01	1	f.gwobe	24	3078	4
091013	13:01	1	f.voosh	25	1793	6
091013	13:01	1	f.fabe	26	1399	8
091013	13:01	1	f.shroze	27	4260	4
091013	13:01	1	f.shroob	28	3152	7
091013	13:01	1	f.thrage	29	2816	8
091013	13:01	1	f.foof	30	4549	9
091013	13:01	1	f.dwope	31	1789	3
091013	13:01	1	f.kague	32	3292	4
091013	13:01	1	f.twobe	33	3710	3
091013	13:01	1	f.vake	34	3472	1
091013	13:01	1	f.thwave	35	1779	4
091013	13:01	1	f.sneeth	36	2834	7
091013	13:01	1	f.yeege	37	2206	4
091013	13:01	1	f.threege	38	1363	6
091013	13:01	1	f.blashe	39	1971	6
091013	13:01	1	f.frape	40	2202	8
091013	13:01	1	f.bleeth	41	1631	2
091013	13:01	1	f.veesh	42	1788	4
091013	13:01	1	f.froob	43	2490	4
091013	13:01	1	f.skoof	44	1404	6
091013	13:01	1	f.trache	45	3954	7
091013	13:01	1	f.greeg	46	2082	4
091013	13:01	1	f.boshe	47	4460	4
091013	13:01	1	f.drofe	48	1744	5
091013	13:01	1	f.shrape	49	1183	7
091013	13:01	1	f.kroob	50	2950	3
091013	13:01	1	f.gleech	51	2669	7
091013	13:01	1	f.smood	52	1921	4
091013	13:01	1	f.blathe	53	3834	2
091013	13:01	1	f.tafe	54	2023	7
091013	13:01	1	f.shrope	55	4564	4
091013	13:01	1	f.shroove	56	2772	2
091013	13:01	1	f.plole	57	2931	8
091013	13:01	1	f.shraze	58	3163	4
091013	13:01	1	f.stooth	59	1955	5
091013	13:01	1	f.kloog	60	2578	3
091013	13:01	1	howtype	1	15071	7
091713	10:07	1	speed	1	4105	35
091713	10:07	1	error	2	2499	94
091713	10:07	1	whichhand	3	10622	right
091713	10:07	1	f.gooch	1	15003	4
091713	10:07	1	f.prashe	2	3813	4
091713	10:07	1	f.froof	3	2425	4
091713	10:07	1	f.frogue	4	1671	4
091713	10:07	1	f.smoove	5	6265	7
091713	10:07	1	f.neesh	6	3846	5
091713	10:07	1	f.snabe	7	2370	4
091713	10:07	1	f.slobe	8	3425	4
091713	10:07	1	f.krashe	9	5887	3
091713	10:07	1	f.gwope	10	1466	3
091713	10:07	1	f.throoge	11	1165	2
091713	10:07	1	f.thwogue	12	1244	2
091713	10:07	1	f.pooth	13	1567	2
091713	10:07	1	f.spoom	14	3534	4
091713	10:07	1	f.gwode	15	1127	2
091713	10:07	1	f.twache	16	1263	1
091713	10:07	1	f.proke	17	5058	5
091713	10:07	1	f.sague	18	1894	5
091713	10:07	1	f.kleeb	19	1176	1
091713	10:07	1	f.blale	20	1534	2
091713	10:07	1	f.yeege	21	1135	2
091713	10:07	1	f.tage	22	807	2
091713	10:07	1	f.gwooch	23	1020	2
091713	10:07	1	f.twoge	24	1137	2
091713	10:07	1	f.blabe	25	2152	2
091713	10:07	1	f.bague	26	2008	2
091713	10:07	1	f.sogue	27	1014	2
091713	10:07	1	f.tweel	28	866	2
091713	10:07	1	f.zape	29	1381	2
091713	10:07	1	f.swoche	30	827	2
091713	10:07	1	f.plale	31	1007	2
091713	10:07	1	f.voosh	32	717	2
091713	10:07	1	f.dwoot	33	757	2
091713	10:07	1	f.zode	34	2493	4
091713	10:07	1	f.proosh	35	1510	1
091713	10:07	1	f.foop	36	831	2
091713	10:07	1	f.snoshe	37	723	2
091713	10:07	1	f.swoze	38	868	2
091713	10:07	1	f.freeg	39	790	2
091713	10:07	1	f.krathe	40	764	2
091713	10:07	1	f.wache	41	795	2
091713	10:07	1	f.dreese	42	520	2
091713	10:07	1	f.gweem	43	729	2
091713	10:07	1	f.smose	44	920	2
091713	10:07	1	f.thwooth	45	625	2
091713	10:07	1	f.shrape	46	590	2
091713	10:07	1	f.glole	47	1203	2
091713	10:07	1	f.thwale	48	681	2
091713	10:07	1	f.chood	49	1171	2
091713	10:07	1	f.dwoke	50	777	2
091713	10:07	1	f.blague	51	767	2
091713	10:07	1	f.stofe	52	678	2
091713	10:07	1	f.prage	53	616	2
091713	10:07	1	f.jathe	54	780	2
091713	10:07	1	f.sleesh	55	506	2
091713	10:07	1	f.sleem	56	1163	2
091713	10:07	1	f.smone	57	1778	2
091713	10:07	1	f.yeech	58	752	2
091713	10:07	1	f.dreer	59	1912	2
091713	10:07	1	f.dwoge	60	625	2
091713	10:07	1	r.comfort	1	2291	7
091713	10:07	1	r.virtue	2	4965	7
091713	10:07	1	r.alimony	3	1878	5
091713	10:07	1	r.leader	4	3599	5
091713	10:07	1	r.ankle	5	3102	5
091713	10:07	1	r.consoled	6	4336	6
091713	10:07	1	r.nightmare	7	2473	1
091713	10:07	1	r.wine	8	5444	5
091713	10:07	1	r.greet	9	3497	9
091713	10:07	1	r.bees	10	2339	3
091713	10:07	1	r.color	11	2171	5
091713	10:07	1	r.disappoint	12	1802	1
091713	10:07	1	r.glass	13	2320	5
091713	10:07	1	r.health	14	2041	5
091713	10:07	1	r.angel	15	2501	9
091713	10:07	1	r.paint	16	1767	5
091713	10:07	1	r.freedom	17	3485	9
091713	10:07	1	r.magical	18	3689	6
091713	10:07	1	r.measles	19	2252	1
091713	10:07	1	r.nipple	20	1831	5
091713	10:07	1	r.dazzle	21	4315	6
091713	10:07	1	r.malaria	22	2077	1
091713	10:07	1	r.father	23	2256	5
091713	10:07	1	r.nurse	24	2876	6
091713	10:07	1	r.maniac	25	2142	6
091713	10:07	1	r.loved	26	2462	9
091713	10:07	1	r.power	27	1874	9
091713	10:07	1	r.bench	28	1877	5
091713	10:07	1	r.flag	29	1695	5
091713	10:07	1	r.clothing	30	1752	5
091713	10:07	1	r.love	31	2048	9
091713	10:07	1	r.gold	32	1651	9
091713	10:07	1	r.bus	33	2127	6
091713	10:07	1	r.relaxed	34	1775	8
091713	10:07	1	r.cane	35	2782	5
091713	10:07	1	r.answer	36	1525	5
091713	10:07	1	r.fraud	37	2454	1
091713	10:07	1	r.waste	38	3809	4
091713	10:07	1	r.easygoing	39	2302	8
091713	10:07	1	r.reptile	40	2921	4
091713	10:07	1	r.sinful	41	3106	4
091713	10:07	1	r.melody	42	3804	7
091713	10:07	1	r.volcano	43	4146	1
091713	10:07	1	r.silk	44	2651	6
091713	10:07	1	r.invader	45	2206	1
091713	10:07	1	r.meek	46	2764	5
091713	10:07	1	r.illness	47	2299	3
091713	10:07	1	r.bathtub	48	2661	6
091713	10:07	1	r.affection	49	3848	7
091713	10:07	1	r.jewel	50	3332	9
091713	10:07	1	r.fall	51	2061	4
091713	10:07	1	r.grief	52	2192	3
091713	10:07	1	r.overcast	53	2679	4
091713	10:07	1	r.evil	54	1729	1
091713	10:07	1	r.rollercoaster	55	2825	5
091713	10:07	1	r.weapon	56	3191	4
091713	10:07	1	r.golfer	57	4581	5
091713	10:07	1	r.cottage	58	3797	5
091713	10:07	1	r.christmas	59	1603	9
091713	10:07	1	r.rusty	60	1592	4
091713	10:07	1	howtype	1	15437	5
091713	12:50	1	speed	1	3181	50
091713	12:50	1	error	2	2882	92
091713	12:50	1	whichhand	3	5759	right
091713	12:50	1	r.cannon	1	10430	5
091713	12:50	1	r.crisis	2	11518	4
091713	12:50	1	r.jolly	3	6194	8
091713	12:50	1	r.frustrated	4	3217	2
091713	12:50	1	r.abuse	5	2126	1
091713	12:50	1	r.scar	6	2302	1
091713	12:50	1	r.messy	7	2120	3
091713	12:50	1	r.lively	8	1937	6
091713	12:50	1	r.secure	9	3106	7
091713	12:50	1	r.lamp	10	2020	5
091713	12:50	1	r.astronaut	11	2209	5
091713	12:50	1	r.crucify	12	3182	3
091713	12:50	1	r.father	13	2156	7
091713	12:50	1	r.life	14	2469	9
091713	12:50	1	r.alone	15	2024	1
091713	12:50	1	r.spanking	16	1869	1
091713	12:50	1	r.profit	17	3640	7
091713	12:50	1	r.serious	18	1413	5
091713	12:50	1	r.mucus	19	1241	5
091713	12:50	1	r.door	20	2542	5
091713	12:50	1	r.field	21	1590	5
091713	12:50	1	r.letter	22	1076	5
091713	12:50	1	r.millionaire	23	1911	8
091713	12:50	1	r.surprised	24	1576	5
091713	12:50	1	r.star	25	2870	5
091713	12:50	1	r.alimony	26	4442	4
091713	12:50	1	r.flirt	27	1430	6
091713	12:50	1	r.angel	28	1202	7
091713	12:50	1	r.fault	29	1384	5
091713	12:50	1	r.abduction	30	2422	3
091713	12:50	1	r.ketchup	31	3922	5
091713	12:50	1	r.history	32	1132	5
091713	12:50	1	r.trouble	33	941	5
091713	12:50	1	r.selfish	34	3860	5
091713	12:50	1	r.rollercoaster	35	3240	7
091713	12:50	1	r.lie	36	1933	5
091713	12:50	1	r.fearful	37	3108	5
091713	12:50	1	r.learn	38	2758	9
091713	12:50	1	r.applause	39	1070	9
091713	12:50	1	r.mold	40	1489	5
091713	12:50	1	r.enjoyment	41	1443	7
091713	12:50	1	r.dream	42	2111	8
091713	12:50	1	r.church	43	1832	5
091713	12:50	1	r.death	44	1820	3
091713	12:50	1	r.sissy	45	2225	4
091713	12:50	1	r.triumph	46	2270	7
091713	12:50	1	r.part	47	1993	5
091713	12:50	1	r.joyful	48	6342	5
091713	12:50	1	r.fur	49	2552	5
091713	12:50	1	r.debt	50	872	5
091713	12:50	1	r.innocent	51	1874	6
091713	12:50	1	r.obscene	52	2085	4
091713	12:50	1	r.pleasure	53	3551	8
091713	12:50	1	r.humane	54	1791	9
091713	12:50	1	r.fish	55	1454	5
091713	12:50	1	r.arm	56	689	5
091713	12:50	1	r.tune	57	1539	5
091713	12:50	1	r.alien	58	1363	5
091713	12:50	1	r.pity	59	3242	6
091713	12:50	1	r.journal	60	903	5
091713	12:50	1	f.gwaze	1	4940	5
091713	12:50	1	f.froove	2	1485	5
091713	12:50	1	f.dwague	3	1032	5
091713	12:50	1	f.flashe	4	1524	5
091713	12:50	1	f.kwaze	5	1013	5
091713	12:50	1	f.zeesh	6	865	5
091713	12:50	1	f.yabe	7	1164	5
091713	12:50	1	f.skoof	8	770	5
091713	12:50	1	f.sleeb	9	1145	5
091713	12:50	1	f.swoob	10	697	5
091713	12:50	1	f.thoot	11	1554	5
091713	12:50	1	f.gwoshe	12	1993	5
091713	12:50	1	f.zode	13	1919	5
091713	12:50	1	f.krooge	14	3695	5
091713	12:50	1	f.sague	15	866	5
091713	12:50	1	f.klobe	16	549	5
091713	12:50	1	f.preet	17	396	5
091713	12:50	1	f.snoof	18	617	5
091713	12:50	1	f.toshe	19	1269	5
091713	12:50	1	f.twabe	20	544	5
091713	12:50	1	f.thrache	21	1248	5
091713	12:50	1	f.twobe	22	603	5
091713	12:50	1	f.gweese	23	728	5
091713	12:50	1	f.shroor	24	744	5
091713	12:50	1	f.plale	25	863	5
091713	12:50	1	f.brope	26	1258	5
091713	12:50	1	f.shooch	27	373	5
091713	12:50	1	f.dweeve	28	340	5
091713	12:50	1	f.fleesh	29	412	5
091713	12:50	1	f.dabe	30	352	5
091713	12:50	1	f.plage	31	383	5
091713	12:50	1	f.threeg	32	589	5
091713	12:50	1	f.lache	33	595	5
091713	12:50	1	f.kwome	34	576	5
091713	12:50	1	f.glase	35	606	5
091713	12:50	1	f.thwoob	36	596	5
091713	12:50	1	f.dweege	37	361	5
091713	12:50	1	f.glage	38	447	5
091713	12:50	1	f.shreer	39	586	5
091713	12:50	1	f.vofe	40	1041	5
091713	12:50	1	f.kreeg	41	1236	5
091713	12:50	1	f.thague	42	1080	5
091713	12:50	1	f.trogue	43	995	5
091713	12:50	1	f.flave	44	736	5
091713	12:50	1	f.yove	45	424	5
091713	12:50	1	f.breeg	46	404	5
091713	12:50	1	f.freef	47	601	5
091713	12:50	1	f.kweesh	48	766	5
091713	12:50	1	f.gloose	49	1405	5
091713	12:50	1	f.glashe	50	1618	5
091713	12:50	1	f.seesh	51	911	5
091713	12:50	1	f.klood	52	752	5
091713	12:50	1	f.sache	53	775	5
091713	12:50	1	f.skeeve	54	566	5
091713	12:50	1	f.treeb	55	516	5
091713	12:50	1	f.klale	56	589	5
091713	12:50	1	f.gwofe	57	435	5
091713	12:50	1	f.swoove	58	463	5
091713	12:50	1	f.glook	59	417	5
091713	12:50	1	f.shreel	60	365	5
091713	12:50	1	howtype	1	7955	7
091713	13:28	1	speed	1	3666	37
091713	13:28	1	error	2	2770	100
091713	13:28	1	whichhand	3	7130	Left
091713	13:28	1	f.tware	1	13959	3
091713	13:28	1	f.dwode	2	3114	4
091713	13:28	1	f.gweese	3	2227	4
091713	13:28	1	f.shrafe	4	2424	2
091713	13:28	1	f.gwooch	5	1973	2
091713	13:28	1	f.shrave	6	2124	5
091713	13:28	1	f.threed	7	2069	6
091713	13:28	1	f.kwaze	8	2208	8
091713	13:28	1	f.chale	9	5221	8
091713	13:28	1	f.shose	10	2611	7
091713	13:28	1	f.throme	11	2513	8
091713	13:28	1	f.dwase	12	1794	3
091713	13:28	1	f.zade	13	2984	7
091713	13:28	1	f.voove	14	2350	6
091713	13:28	1	f.trobe	15	1798	6
091713	13:28	1	f.frove	16	2171	5
091713	13:28	1	f.shroof	17	2162	5
091713	13:28	1	f.dothe	18	2577	4
091713	13:28	1	f.shroze	19	1360	5
091713	13:28	1	f.shreen	20	1823	4
091713	13:28	1	f.krage	21	2420	5
091713	13:28	1	f.blabe	22	2201	8
091713	13:28	1	f.droof	23	2974	7
091713	13:28	1	f.slool	24	1894	4
091713	13:28	1	f.spoog	25	3384	3
091713	13:28	1	f.twashe	26	3766	6
091713	13:28	1	f.thathe	27	2318	5
091713	13:28	1	f.blafe	28	2271	6
091713	13:28	1	f.prame	29	1425	4
091713	13:28	1	f.dwoof	30	1583	5
091713	13:28	1	f.zove	31	2333	3
091713	13:28	1	f.dwave	32	2429	5
091713	13:28	1	f.spage	33	2026	6
091713	13:28	1	f.floshe	34	1239	4
091713	13:28	1	f.thwood	35	1891	5
091713	13:28	1	f.kwooch	36	1925	3
091713	13:28	1	f.shague	37	2598	3
091713	13:28	1	f.slome	38	3116	5
091713	13:28	1	f.toove	39	2341	6
091713	13:28	1	f.seeb	40	2542	7
091713	13:28	1	f.groog	41	1326	3
091713	13:28	1	f.smoog	42	2158	5
091713	13:28	1	f.jogue	43	1958	8
091713	13:28	1	f.stothe	44	1990	4
091713	13:28	1	f.throfe	45	1204	4
091713	13:28	1	f.dware	46	2649	3
091713	13:28	1	f.dache	47	1581	4
091713	13:28	1	f.prool	48	2419	5
091713	13:28	1	f.yoche	49	2081	6
091713	13:28	1	f.dweeve	50	1459	5
091713	13:28	1	f.sloor	51	1974	2
091713	13:28	1	f.sneem	52	1949	5
091713	13:28	1	f.gwoob	53	3677	4
091713	13:28	1	f.joot	54	2272	6
091713	13:28	1	f.gweek	55	2259	4
091713	13:28	1	f.zeeve	56	1999	3
091713	13:28	1	f.smathe	57	1644	8
091713	13:28	1	f.grogue	58	2031	7
091713	13:28	1	f.thware	59	1588	3
091713	13:28	1	f.mooth	60	1498	4
091713	13:28	1	r.incentive	1	3666	8
091713	13:28	1	r.impressed	2	1821	8
091713	13:28	1	r.vandal	3	1627	2
091713	13:28	1	r.malaria	4	2103	1
091713	13:28	1	r.vigorous	5	1488	9
091713	13:28	1	r.illness	6	1683	2
091713	13:28	1	r.derelict	7	2173	2
091713	13:28	1	r.pinch	8	2140	3
091713	13:28	1	r.fascinate	9	1996	7
091713	13:28	1	r.youth	10	2026	6
091713	13:28	1	r.sunrise	11	2046	9
091713	13:28	1	r.soft	12	2050	7
091713	13:28	1	r.whistle	13	2181	6
091713	13:28	1	r.white	14	1868	5
091713	13:28	1	r.surprised	15	1687	7
091713	13:28	1	r.nun	16	2097	4
091713	13:28	1	r.woman	17	1851	7
091713	13:28	1	r.quarrel	18	2350	3
091713	13:28	1	r.ulcer	19	2318	1
091713	13:28	1	r.guilty	20	1991	3
091713	13:28	1	r.water	21	1342	5
091713	13:28	1	r.rainbow	22	1765	7
091713	13:28	1	r.wasp	23	1709	2
091713	13:28	1	r.mildew	24	2238	2
091713	13:28	1	r.controlling	25	2266	2
091713	13:28	1	r.delight	26	1741	7
091713	13:28	1	r.tank	27	2086	5
091713	13:28	1	r.father	28	1632	7
091713	13:28	1	r.beach	29	1836	8
091713	13:28	1	r.absurd	30	2665	3
091713	13:28	1	r.ache	31	2252	3
091713	13:28	1	r.confused	32	2111	4
091713	13:28	1	r.failure	33	2248	2
091713	13:28	1	r.bench	34	1380	5
091713	13:28	1	r.thorn	35	2130	5
091713	13:28	1	r.sun	36	3243	8
091713	13:28	1	r.hay	37	2143	5
091713	13:28	1	r.song	38	1574	6
091713	13:28	1	r.bold	39	2549	5
091713	13:28	1	r.birthday	40	1533	7
091713	13:28	1	r.thought	41	2501	6
091713	13:28	1	r.quiet	42	2015	6
091713	13:28	1	r.virtue	43	2756	7
091713	13:28	1	r.natural	44	2252	8
091713	13:28	1	r.tower	45	2096	5
091713	13:28	1	r.diver	46	1793	6
091713	13:28	1	r.theory	47	2359	4
091713	13:28	1	r.contempt	48	2775	7
091713	13:28	1	r.advantage	49	1534	7
091713	13:28	1	r.snuggle	50	2046	9
091713	13:28	1	r.candy	51	1778	7
091713	13:28	1	r.patient	52	2008	6
091713	13:28	1	r.eat	53	2142	5
091713	13:28	1	r.tragedy	54	2382	1
091713	13:28	1	r.joy	55	1508	6
091713	13:28	1	r.sweetheart	56	1966	7
091713	13:28	1	r.legend	57	2061	5
091713	13:28	1	r.passion	58	2032	8
091713	13:28	1	r.pity	59	2260	2
091713	13:28	1	r.holiday	60	1399	6
091713	13:28	1	howtype	1	12225	5
091713	13:51	1	speed	1	3621	61
091713	13:51	1	error	2	2765	80
091713	13:51	1	whichhand	3	8373	Right
091713	13:51	1	r.mushroom	1	5756	4
091713	13:51	1	r.whore	2	3245	5
091713	13:51	1	r.love	3	2273	8
091713	13:51	1	r.madman	4	1620	3
091713	13:51	1	r.malaria	5	1529	2
091713	13:51	1	r.moody	6	2193	4
091713	13:51	1	r.vandal	7	3143	3
091713	13:51	1	r.scholar	8	2062	7
091713	13:51	1	r.lottery	9	1402	8
091713	13:51	1	r.beast	10	1887	3
091713	13:51	1	r.slime	11	1609	2
091713	13:51	1	r.hinder	12	1599	2
091713	13:51	1	r.cockroach	13	1348	1
091713	13:51	1	r.bored	14	3140	3
091713	13:51	1	r.surgery	15	1708	2
091713	13:51	1	r.pleasure	16	1998	9
091713	13:51	1	r.inspire	17	1587	8
091713	13:51	1	r.abortion	18	1842	3
091713	13:51	1	r.volcano	19	1717	5
091713	13:51	1	r.quick	20	1727	5
091713	13:51	1	r.person	21	919	5
091713	13:51	1	r.ecstasy	22	1960	7
091713	13:51	1	r.profit	23	2719	5
091713	13:51	1	r.vest	24	1464	4
091713	13:51	1	r.death	25	1547	1
091713	13:51	1	r.hamburger	26	1498	1
091713	13:51	1	r.dinner	27	1787	5
091713	13:51	1	r.name	28	1234	5
091713	13:51	1	r.pungent	29	1790	1
091713	13:51	1	r.greet	30	1636	6
091713	13:51	1	r.lion	31	1856	8
091713	13:51	1	r.god	32	1868	6
091713	13:51	1	r.woman	33	1759	5
091713	13:51	1	r.watch	34	1599	5
091713	13:51	1	r.war	35	1620	3
091713	13:51	1	r.fabric	36	1521	7
091713	13:51	1	r.insect	37	1586	2
091713	13:51	1	r.fragrance	38	1504	5
091713	13:51	1	r.rusty	39	1746	4
091713	13:51	1	r.morbid	40	1529	3
091713	13:51	1	r.sheltered	41	1969	5
091713	13:51	1	r.scapegoat	42	1408	4
091713	13:51	1	r.lightbulb	43	2006	5
091713	13:51	1	r.city	44	1787	4
091713	13:51	1	r.square	45	1257	5
091713	13:51	1	r.scandal	46	1765	2
091713	13:51	1	r.sick	47	2235	2
091713	13:51	1	r.impotent	48	2040	5
091713	13:51	1	r.thermometer	49	1109	5
091713	13:51	1	r.razor	50	1110	4
091713	13:51	1	r.elevator	51	1486	5
091713	13:51	1	r.rancid	52	1617	1
091713	13:51	1	r.kick	53	1516	2
091713	13:51	1	r.termite	54	1598	1
091713	13:51	1	r.anger	55	1372	1
091713	13:51	1	r.hurt	56	1675	2
091713	13:51	1	r.flower	57	2125	8
091713	13:51	1	r.miracle	58	2255	8
091713	13:51	1	r.young	59	1330	5
091713	13:51	1	r.material	60	1498	6
091713	13:51	1	f.chage	1	3972	3
091713	13:51	1	f.zope	2	1900	6
091713	13:51	1	f.brogue	3	1534	2
091713	13:51	1	f.zeech	4	1326	1
091713	13:51	1	f.spope	5	2102	2
091713	13:51	1	f.shoob	6	2344	4
091713	13:51	1	f.steese	7	1184	4
091713	13:51	1	f.dwake	8	1238	4
091713	13:51	1	f.klabe	9	1786	5
091713	13:51	1	f.gwabe	10	2058	6
091713	13:51	1	f.jashe	11	1427	4
091713	13:51	1	f.spoot	12	1263	5
091713	13:51	1	f.flafe	13	2186	1
091713	13:51	1	f.yeech	14	1360	5
091713	13:51	1	f.krague	15	1055	5
091713	13:51	1	f.dreer	16	1458	4
091713	13:51	1	f.prome	17	1533	5
091713	13:51	1	f.zoge	18	1718	8
091713	13:51	1	f.thweesh	19	1535	5
091713	13:51	1	f.swame	20	1655	4
091713	13:51	1	f.sleege	21	1754	1
091713	13:51	1	f.stofe	22	1218	3
091713	13:51	1	f.gleege	23	1238	5
091713	13:51	1	f.klool	24	1219	4
091713	13:51	1	f.flove	25	1455	5
091713	13:51	1	f.kwoob	26	2267	6
091713	13:51	1	f.shoge	27	2614	4
091713	13:51	1	f.choog	28	1947	5
091713	13:51	1	f.smood	29	1747	5
091713	13:51	1	f.skofe	30	1194	4
091713	13:51	1	f.thabe	31	1104	3
091713	13:51	1	f.skobe	32	1041	3
091713	13:51	1	f.brape	33	1253	3
091713	13:51	1	f.klape	34	1656	4
091713	13:51	1	f.twoof	35	1116	5
091713	13:51	1	f.kwooge	36	1349	4
091713	13:51	1	f.snood	37	1492	4
091713	13:51	1	f.smeem	38	1966	2
091713	13:51	1	f.dathe	39	1989	2
091713	13:51	1	f.troke	40	1956	3
091713	13:51	1	f.spathe	41	1547	5
091713	13:51	1	f.yeef	42	1779	4
091713	13:51	1	f.dague	43	3073	6
091713	13:51	1	f.snoob	44	1172	5
091713	13:51	1	f.chooth	45	1347	4
091713	13:51	1	f.sleef	46	1795	2
091713	13:51	1	f.thweek	47	1608	5
091713	13:51	1	f.skeesh	48	1237	4
091713	13:51	1	f.klade	49	2834	8
091713	13:51	1	f.gwame	50	1206	6
091713	13:51	1	f.thague	51	2100	5
091713	13:51	1	f.twothe	52	893	5
091713	13:51	1	f.swafe	53	1207	4
091713	13:51	1	f.swoge	54	964	4
091713	13:51	1	f.chode	55	987	4
091713	13:51	1	f.grare	56	2961	5
091713	13:51	1	f.gweeg	57	1280	4
091713	13:51	1	f.slole	58	1642	3
091713	13:51	1	f.yafe	59	1366	5
091713	13:51	1	f.skeeve	60	2117	2
091713	13:51	1	howtype	1	6109	2
091713	14:57	1	speed	1	3189	43
091713	14:57	1	error	2	2687	95
091713	14:57	1	whichhand	3	10771	Right
091713	14:57	1	f.soosh	1	13085	5
091713	14:57	1	f.plage	2	6211	4
091713	14:57	1	f.glake	3	1993	4
091713	14:57	1	f.chabe	4	3175	4
091713	14:57	1	f.thwane	5	2630	5
091713	14:57	1	f.slole	6	4835	4
091713	14:57	1	f.snooge	7	4904	5
091713	14:57	1	f.pleek	8	1971	5
091713	14:57	1	f.krashe	9	3449	5
091713	14:57	1	f.dwashe	10	2446	5
091713	14:57	1	f.gwoot	11	4025	6
091713	14:57	1	f.kwobe	12	8262	5
091713	14:57	1	f.thwoze	13	6835	4
091713	14:57	1	f.frogue	14	6297	5
091713	14:57	1	f.gwood	15	4972	5
091713	14:57	1	f.dweek	16	3276	5
091713	14:57	1	f.shrofe	17	1967	4
091713	14:57	1	f.stathe	18	2566	4
091713	14:57	1	f.slashe	19	3021	5
091713	14:57	1	f.sweeve	20	5562	5
091713	14:57	1	f.dweed	21	6114	5
091713	14:57	1	f.drooge	22	4661	5
091713	14:57	1	f.freef	23	3008	5
091713	14:57	1	f.smoge	24	2814	5
091713	14:57	1	f.flobe	25	4636	5
091713	14:57	1	f.brore	26	1688	4
091713	14:57	1	f.frooge	27	8995	6
091713	14:57	1	f.voshe	28	4843	6
091713	14:57	1	f.shreege	29	6039	5
091713	14:57	1	f.kwage	30	6133	5
091713	14:57	1	f.gwoop	31	4903	4
091713	14:57	1	f.sneem	32	6097	4
091713	14:57	1	f.zathe	33	1892	4
091713	14:57	1	f.throove	34	2255	5
091713	14:57	1	f.mofe	35	3154	4
091713	14:57	1	f.gwooze	36	3914	4
091713	14:57	1	f.shreen	37	4572	5
091713	14:57	1	f.voom	38	1819	5
091713	14:57	1	f.kroof	39	4520	4
091713	14:57	1	f.glase	40	3770	5
091713	14:57	1	f.sague	41	4161	5
091713	14:57	1	f.joof	42	4809	6
091713	14:57	1	f.brage	43	2759	4
091713	14:57	1	f.kweeze	44	4422	4
091713	14:57	1	f.thwoop	45	1788	6
091713	14:57	1	f.trage	46	2218	6
091713	14:57	1	f.threege	47	3776	5
091713	14:57	1	f.keeg	48	2270	4
091713	14:57	1	f.steeb	49	2298	4
091713	14:57	1	f.fleeve	50	2555	6
091713	14:57	1	f.twoog	51	5891	4
091713	14:57	1	f.proge	52	5359	6
091713	14:57	1	f.meesh	53	5975	5
091713	14:57	1	f.theet	54	2391	4
091713	14:57	1	f.sheech	55	2941	6
091713	14:57	1	f.shrate	56	5750	4
091713	14:57	1	f.nabe	57	1719	4
091713	14:57	1	f.zooge	58	3632	6
091713	14:57	1	f.soche	59	3444	4
091713	14:57	1	f.thwase	60	3241	4
091713	14:57	1	r.puppy	1	6126	9
091713	14:57	1	r.intruder	2	5408	1
091713	14:57	1	r.sun	3	3638	9
091713	14:57	1	r.morbid	4	2619	2
091713	14:57	1	r.river	5	3577	8
091713	14:57	1	r.nipple	6	4303	2
091713	14:57	1	r.tender	7	2248	2
091713	14:57	1	r.romantic	8	2149	8
091713	14:57	1	r.pretty	9	1677	9
091713	14:57	1	r.immature	10	3223	1
091713	14:57	1	r.hide	11	2013	5
091713	14:57	1	r.cut	12	3321	1
091713	14:57	1	r.employment	13	2091	9
091713	14:57	1	r.inhabitant	14	3877	5
091713	14:57	1	r.innocent	15	2232	9
091713	14:57	1	r.rifle	16	2709	1
091713	14:57	1	r.injury	17	4726	2
091713	14:57	1	r.seasick	18	2232	2
091713	14:57	1	r.decorate	19	1932	7
091713	14:57	1	r.errand	20	3164	3
091713	14:57	1	r.skijump	21	3596	7
091713	14:57	1	r.farm	22	4498	8
091713	14:57	1	r.humble	23	1844	9
091713	14:57	1	r.abduction	24	1848	1
091713	14:57	1	r.dancer	25	2427	8
091713	14:57	1	r.flirt	26	3216	5
091713	14:57	1	r.angel	27	1734	9
091713	14:57	1	r.clouds	28	1509	9
091713	14:57	1	r.garter	29	2046	5
091713	14:57	1	r.spanking	30	2194	1
091713	14:57	1	r.startled	31	2648	5
091713	14:57	1	r.person	32	3260	6
091713	14:57	1	r.tank	33	2279	5
091713	14:57	1	r.locker	34	1945	5
091713	14:57	1	r.promotion	35	1649	9
091713	14:57	1	r.column	36	1621	5
091713	14:57	1	r.ecstasy	37	3442	5
091713	14:57	1	r.mangle	38	9214	4
091713	14:57	1	r.consoled	39	3909	5
091713	14:57	1	r.lump	40	2599	3
091713	14:57	1	r.perfume	41	2389	8
091713	14:57	1	r.bright	42	3139	5
091713	14:57	1	r.toxic	43	2764	2
091713	14:57	1	r.violin	44	1627	8
091713	14:57	1	r.jug	45	1599	5
091713	14:57	1	r.maggot	46	1157	5
091713	14:57	1	r.wit	47	2460	5
091713	14:57	1	r.elated	48	3911	5
091713	14:57	1	r.humor	49	1665	9
091713	14:57	1	r.spider	50	1940	2
091713	14:57	1	r.mutilate	51	4604	5
091713	14:57	1	r.arrogant	52	2003	2
091713	14:57	1	r.insolent	53	6424	5
091713	14:57	1	r.cook	54	2175	8
091713	14:57	1	r.interest	55	2670	5
091713	14:57	1	r.sleep	56	1945	9
091713	14:57	1	r.trunk	57	2696	5
091713	14:57	1	r.solemn	58	3530	5
091713	14:57	1	r.safe	59	3163	8
091713	14:57	1	r.hooker	60	2067	1
091713	14:57	1	howtype	1	12516	6
091713	15:30	1	speed	1	2964	43
091713	15:30	1	error	2	3061	90
091713	15:30	1	whichhand	3	4705	Right
091713	15:30	1	f.dweem	1	7385	8
091713	15:30	1	f.jafe	2	3419	5
091713	15:30	1	f.feeb	3	2824	5
091713	15:30	1	f.kwome	4	4557	7
091713	15:30	1	f.fague	5	3438	3
091713	15:30	1	f.joob	6	3091	7
091713	15:30	1	f.spove	7	2429	5
091713	15:30	1	f.shabe	8	5370	4
091713	15:30	1	f.twape	9	2402	2
091713	15:30	1	f.prage	10	2943	7
091713	15:30	1	f.thweeve	11	2071	1
091713	15:30	1	f.zode	12	7658	5
091713	15:30	1	f.mathe	13	1791	2
091713	15:30	1	f.droge	14	2254	3
091713	15:30	1	f.plache	15	1505	5
091713	15:30	1	f.jate	16	2411	6
091713	15:30	1	f.soob	17	1840	1
091713	15:30	1	f.dwooth	18	2660	5
091713	15:30	1	f.boshe	19	2863	5
091713	15:30	1	f.frooth	20	2875	4
091713	15:30	1	f.gweep	21	2598	3
091713	15:30	1	f.snoove	22	2164	1
091713	15:30	1	f.blathe	23	1419	7
091713	15:30	1	f.thweesh	24	4471	3
091713	15:30	1	f.kwove	25	4779	5
091713	15:30	1	f.thwoof	26	1755	5
091713	15:30	1	f.speeve	27	1538	4
091713	15:30	1	f.slore	28	4370	3
091713	15:30	1	f.spame	29	1786	1
091713	15:30	1	f.pobe	30	2880	5
091713	15:30	1	f.yoop	31	1483	5
091713	15:30	1	f.foog	32	2941	8
091713	15:30	1	f.twoosh	33	1246	5
091713	15:30	1	f.groor	34	2265	3
091713	15:30	1	f.kweese	35	2260	5
091713	15:30	1	f.droog	36	3191	3
091713	15:30	1	f.neech	37	1614	5
091713	15:30	1	f.joche	38	2075	6
091713	15:30	1	f.bague	39	1766	5
091713	15:30	1	f.thweer	40	1189	4
091713	15:30	1	f.thale	41	1515	5
091713	15:30	1	f.threer	42	2699	3
091713	15:30	1	f.kweem	43	1702	5
091713	15:30	1	f.skove	44	5679	7
091713	15:30	1	f.froge	45	4162	7
091713	15:30	1	f.blafe	46	2986	3
091713	15:30	1	f.kwooch	47	1376	5
091713	15:30	1	f.drode	48	1439	4
091713	15:30	1	f.choog	49	1491	5
091713	15:30	1	f.prame	50	925	5
091713	15:30	1	f.shroshe	51	3334	4
091713	15:30	1	f.plooch	52	1966	5
091713	15:30	1	f.frobe	53	3709	5
091713	15:30	1	f.shreege	54	1846	3
091713	15:30	1	f.dwate	55	1331	5
091713	15:30	1	f.dweeve	56	2635	1
091713	15:30	1	f.sneeth	57	2199	1
091713	15:30	1	f.speege	58	5109	2
091713	15:30	1	f.droze	59	1918	2
091713	15:30	1	f.plothe	60	1712	5
091713	15:30	1	r.inhabitant	1	4019	5
091713	15:30	1	r.excuse	2	3320	2
091713	15:30	1	r.daylight	3	1818	9
091713	15:30	1	r.starving	4	1870	1
091713	15:30	1	r.masturbate	5	3352	1
091713	15:30	1	r.bless	6	1506	9
091713	15:30	1	r.resent	7	2499	1
091713	15:30	1	r.heal	8	2277	9
091713	15:30	1	r.sweetheart	9	1759	9
091713	15:30	1	r.quiet	10	1630	9
091713	15:30	1	r.gender	11	2075	5
091713	15:30	1	r.sunset	12	1558	9
091713	15:30	1	r.honey	13	997	9
091713	15:30	1	r.nightmare	14	1610	1
091713	15:30	1	r.art	15	2423	8
091713	15:30	1	r.refreshment	16	1516	8
091713	15:30	1	r.deceit	17	1901	5
091713	15:30	1	r.garbage	18	1469	2
091713	15:30	1	r.acceptance	19	2218	9
091713	15:30	1	r.white	20	1535	5
091713	15:30	1	r.fantasy	21	2799	3
091713	15:30	1	r.roach	22	2413	2
091713	15:30	1	r.rancid	23	1274	5
091713	15:30	1	r.terrified	24	1789	1
091713	15:30	1	r.abundance	25	2587	8
091713	15:30	1	r.wit	26	1825	5
091713	15:30	1	r.blind	27	2006	3
091713	15:30	1	r.mischief	28	1756	2
091713	15:30	1	r.clock	29	1371	5
091713	15:30	1	r.pig	30	1082	5
091713	15:30	1	r.baby	31	1404	9
091713	15:30	1	r.chance	32	1282	5
091713	15:30	1	r.alone	33	3028	6
091713	15:30	1	r.quart	34	3712	5
091713	15:30	1	r.love	35	2361	8
091713	15:30	1	r.strong	36	1617	8
091713	15:30	1	r.penalty	37	2182	2
091713	15:30	1	r.memory	38	2868	5
091713	15:30	1	r.incentive	39	1656	5
091713	15:30	1	r.fur	40	1315	6
091713	15:30	1	r.ecstasy	41	4084	1
091713	15:30	1	r.punishment	42	1967	1
091713	15:30	1	r.magical	43	1774	7
091713	15:30	1	r.satisfied	44	2317	9
091713	15:30	1	r.infection	45	1694	1
091713	15:30	1	r.riot	46	1903	1
091713	15:30	1	r.horse	47	2745	7
091713	15:30	1	r.noisy	48	3057	3
091713	15:30	1	r.beverage	49	1741	5
091713	15:30	1	r.pain	50	2725	2
091713	15:30	1	r.father	51	1950	9
091713	15:30	1	r.corpse	52	1670	2
091713	15:30	1	r.paper	53	1841	5
091713	15:30	1	r.swamp	54	1613	3
091713	15:30	1	r.sad	55	3154	2
091713	15:30	1	r.egg	56	2410	5
091713	15:30	1	r.bed	57	2511	9
091713	15:30	1	r.glass	58	1272	5
091713	15:30	1	r.triumphant	59	2363	9
091713	15:30	1	r.nuisance	60	4970	5
091713	15:30	1	howtype	1	10345	5
091713	15:59	1	speed	1	2928	32
091713	15:59	1	error	2	2345	96
091713	15:59	1	whichhand	3	8697	right
091713	15:59	1	f.gween	1	10950	1
091713	15:59	1	f.jogue	2	3480	4
091713	15:59	1	f.thrague	3	3411	2
091713	15:59	1	f.drothe	4	1753	2
091713	15:59	1	f.yeeze	5	2328	5
091713	15:59	1	f.threeve	6	2089	5
091713	15:59	1	f.chood	7	1779	2
091713	15:59	1	f.nothe	8	2089	1
091713	15:59	1	f.drooch	9	1300	1
091713	15:59	1	f.teesh	10	1645	5
091713	15:59	1	f.thwafe	11	3329	6
091713	15:59	1	f.thrave	12	2553	5
091713	15:59	1	f.twoop	13	1993	5
091713	15:59	1	f.throge	14	3719	3
091713	15:59	1	f.pashe	15	2280	7
091713	15:59	1	f.kwache	16	1987	1
091713	15:59	1	f.skome	17	2009	3
091713	15:59	1	f.twooth	18	2319	4
091713	15:59	1	f.dwote	19	3128	4
091713	15:59	1	f.shreeze	20	1752	4
091713	15:59	1	f.voke	21	2800	6
091713	15:59	1	f.gwoge	22	2734	3
091713	15:59	1	f.cheel	23	1854	7
091713	15:59	1	f.gweem	24	4130	5
091713	15:59	1	f.kloche	25	1707	2
091713	15:59	1	f.fleeb	26	1533	2
091713	15:59	1	f.joot	27	1789	7
091713	15:59	1	f.grague	28	2315	1
091713	15:59	1	f.skogue	29	2212	1
091713	15:59	1	f.gweeg	30	2617	5
091713	15:59	1	f.stooch	31	1862	6
091713	15:59	1	f.kwoosh	32	1609	5
091713	15:59	1	f.plove	33	1879	5
091713	15:59	1	f.stashe	34	3209	8
091713	15:59	1	f.fooch	35	2798	3
091713	15:59	1	f.smeem	36	3148	3
091713	15:59	1	f.pleef	37	1692	1
091713	15:59	1	f.prooth	38	2902	5
091713	15:59	1	f.thache	39	2320	4
091713	15:59	1	f.kwase	40	2018	1
091713	15:59	1	f.drogue	41	2654	2
091713	15:59	1	f.shrooch	42	2130	6
091713	15:59	1	f.kleed	43	2187	4
091713	15:59	1	f.glool	44	1264	4
091713	15:59	1	f.spoge	45	1436	6
091713	15:59	1	f.troom	46	1216	4
091713	15:59	1	f.plage	47	4045	1
091713	15:59	1	f.shreeg	48	2017	4
091713	15:59	1	f.vobe	49	1270	6
091713	15:59	1	f.throve	50	1697	5
091713	15:59	1	f.twame	51	1178	5
091713	15:59	1	f.sloob	52	1520	3
091713	15:59	1	f.grobe	53	1561	2
091713	15:59	1	f.kweeg	54	2512	5
091713	15:59	1	f.threel	55	1465	5
091713	15:59	1	f.veege	56	972	5
091713	15:59	1	f.ploke	57	1322	5
091713	15:59	1	f.plore	58	2211	6
091713	15:59	1	f.frooch	59	1625	5
091713	15:59	1	f.goche	60	1213	5
091713	15:59	1	r.paper	1	4826	9
091713	15:59	1	r.cat	2	2304	9
091713	15:59	1	r.comedy	3	4281	9
091713	15:59	1	r.runner	4	4131	5
091713	15:59	1	r.tease	5	2101	7
091713	15:59	1	r.wise	6	5343	9
091713	15:59	1	r.puppy	7	1752	9
091713	15:59	1	r.pet	8	1663	9
091713	15:59	1	r.abundance	9	3250	7
091713	15:59	1	r.scholar	10	3126	9
091713	15:59	1	r.utensil	11	3543	6
091713	15:59	1	r.hospital	12	3223	1
091713	15:59	1	r.diploma	13	2173	8
091713	15:59	1	r.bus	14	2804	4
091713	15:59	1	r.optimism	15	1713	9
091713	15:59	1	r.sissy	16	1882	9
091713	15:59	1	r.hell	17	2005	1
091713	15:59	1	r.cemetery	18	1450	1
091713	15:59	1	r.luxury	19	1686	9
091713	15:59	1	r.vampire	20	1944	4
091713	15:59	1	r.breeze	21	1592	8
091713	15:59	1	r.easygoing	22	1510	9
091713	15:59	1	r.engaged	23	1151	9
091713	15:59	1	r.malaria	24	1918	1
091713	15:59	1	r.mind	25	1991	5
091713	15:59	1	r.pig	26	1245	5
091713	15:59	1	r.assault	27	1649	1
091713	15:59	1	r.evil	28	732	1
091713	15:59	1	r.hardship	29	2036	4
091713	15:59	1	r.pain	30	1480	1
091713	15:59	1	r.office	31	3466	5
091713	15:59	1	r.pizza	32	1598	9
091713	15:59	1	r.soothe	33	2867	6
091713	15:59	1	r.seat	34	3111	5
091713	15:59	1	r.bees	35	2208	1
091713	15:59	1	r.lucky	36	1662	9
091713	15:59	1	r.pride	37	1193	9
091713	15:59	1	r.radiator	38	1774	5
091713	15:59	1	r.adult	39	1645	7
091713	15:59	1	r.suffocate	40	1687	1
091713	15:59	1	r.sin	41	978	1
091713	15:59	1	r.bored	42	921	1
091713	15:59	1	r.shamed	43	4074	1
091713	15:59	1	r.clock	44	2709	5
091713	15:59	1	r.boy	45	1742	7
091713	15:59	1	r.wasp	46	1502	1
091713	15:59	1	r.butterfly	47	1696	8
091713	15:59	1	r.unhappy	48	1937	1
091713	15:59	1	r.elated	49	4578	5
091713	15:59	1	r.fur	50	1833	5
091713	15:59	1	r.snob	51	2149	1
091713	15:59	1	r.scissors	52	1844	5
091713	15:59	1	r.house	53	1473	8
091713	15:59	1	r.liberty	54	1443	9
091713	15:59	1	r.fungus	55	2511	3
091713	15:59	1	r.razor	56	1440	3
091713	15:59	1	r.bunny	57	2060	6
091713	15:59	1	r.gymnast	58	1503	9
091713	15:59	1	r.corpse	59	1305	1
091713	15:59	1	r.smooth	60	1154	7
091713	15:59	1	howtype	1	9304	7
091713	16:29	1	speed	1	3024	48
091713	16:29	1	error	2	2192	100
091713	16:29	1	whichhand	3	6191	right
091713	16:29	1	f.bove	1	15247	5
091713	16:29	1	f.glase	2	8479	6
091713	16:29	1	f.kloshe	3	8164	6
091713	16:29	1	f.troke	4	4917	4
091713	16:29	1	f.proosh	5	5535	5
091713	16:29	1	f.snabe	6	3720	2
091713	16:29	1	f.shrabe	7	2474	5
091713	16:29	1	f.dwoof	8	4549	4
091713	16:29	1	f.theet	9	2485	6
091713	16:29	1	f.pague	10	2512	4
091713	16:29	1	f.smode	11	1775	5
091713	16:29	1	f.sweeth	12	2527	6
091713	16:29	1	f.plook	13	2095	5
091713	16:29	1	f.throob	14	1401	5
091713	16:29	1	f.gleef	15	2655	5
091713	16:29	1	f.thween	16	10202	9
091713	16:29	1	f.shrofe	17	3339	6
091713	16:29	1	f.yoove	18	1883	6
091713	16:29	1	f.dwofe	19	3005	6
091713	16:29	1	f.smeesh	20	1972	7
091713	16:29	1	f.swose	21	2147	5
091713	16:29	1	f.joot	22	2290	8
091713	16:29	1	f.dweed	23	3781	7
091713	16:29	1	f.thweeg	24	5876	7
091713	16:29	1	f.dache	25	1623	7
091713	16:29	1	f.kleeb	26	1844	5
091713	16:29	1	f.sneeve	27	1903	4
091713	16:29	1	f.klape	28	3313	4
091713	16:29	1	f.thweep	29	4810	7
091713	16:29	1	f.yeep	30	2304	9
091713	16:29	1	f.kroge	31	3410	5
091713	16:29	1	f.mafe	32	1384	5
091713	16:29	1	f.krooge	33	2822	4
091713	16:29	1	f.trabe	34	3267	5
091713	16:29	1	f.foop	35	1790	5
091713	16:29	1	f.tweer	36	1453	5
091713	16:29	1	f.veep	37	3296	6
091713	16:29	1	f.thwache	38	2274	2
091713	16:29	1	f.dwase	39	1597	2
091713	16:29	1	f.yofe	40	1603	2
091713	16:29	1	f.doog	41	2504	1
091713	16:29	1	f.sweege	42	4090	5
091713	16:29	1	f.dwoog	43	3165	3
091713	16:29	1	f.droose	44	3340	5
091713	16:29	1	f.soshe	45	1269	5
091713	16:29	1	f.yoog	46	2112	7
091713	16:29	1	f.snafe	47	2689	5
091713	16:29	1	f.tweeth	48	5275	9
091713	16:29	1	f.gwooze	49	2039	5
091713	16:29	1	f.chogue	50	1755	6
091713	16:29	1	f.greesh	51	2251	4
091713	16:29	1	f.brague	52	2599	4
091713	16:29	1	f.kweep	53	1644	4
091713	16:29	1	f.gwoof	54	2264	7
091713	16:29	1	f.dooch	55	5555	1
091713	16:29	1	f.frage	56	2740	2
091713	16:29	1	f.skogue	57	2492	3
091713	16:29	1	f.shroove	58	2111	5
091713	16:29	1	f.yeech	59	2080	4
091713	16:29	1	f.threel	60	2810	8
091713	16:29	1	r.outstanding	1	2000	9
091713	16:29	1	r.tool	2	1958	4
091713	16:29	1	r.snow	3	2757	5
091713	16:29	1	r.treasure	4	2781	9
091713	16:29	1	r.quarrel	5	1812	1
091713	16:29	1	r.scornful	6	3657	2
091713	16:29	1	r.employment	7	3373	8
091713	16:29	1	r.context	8	1724	5
091713	16:29	1	r.dazzle	9	1301	9
091713	16:29	1	r.bowl	10	1607	5
091713	16:29	1	r.hurt	11	1484	1
091713	16:29	1	r.sky	12	1630	9
091713	16:29	1	r.penis	13	1875	3
091713	16:29	1	r.nonchalant	14	2437	3
091713	16:29	1	r.knot	15	1938	3
091713	16:29	1	r.patient	16	1786	7
091713	16:29	1	r.hay	17	1464	5
091713	16:29	1	r.quality	18	2451	9
091713	16:29	1	r.mail	19	959	9
091713	16:29	1	r.heaven	20	878	9
091713	16:29	1	r.mushroom	21	2040	6
091713	16:29	1	r.letter	22	2709	8
091713	16:29	1	r.swamp	23	1559	3
091713	16:29	1	r.lamp	24	1454	5
091713	16:29	1	r.misery	25	1913	2
091713	16:29	1	r.perfume	26	1786	7
091713	16:29	1	r.rancid	27	1681	5
091713	16:29	1	r.beach	28	1595	9
091713	16:29	1	r.burn	29	3424	1
091713	16:29	1	r.rape	30	910	1
091713	16:29	1	r.umbrella	31	2038	6
091713	16:29	1	r.icebox	32	1635	5
091713	16:29	1	r.family	33	1447	9
091713	16:29	1	r.pizza	34	1666	5
091713	16:29	1	r.promotion	35	1789	9
091713	16:29	1	r.bandage	36	1924	4
091713	16:29	1	r.machine	37	1477	4
091713	16:29	1	r.memory	38	1871	8
091713	16:29	1	r.weapon	39	1786	2
091713	16:29	1	r.riot	40	1328	2
091713	16:29	1	r.trunk	41	2184	2
091713	16:29	1	r.tamper	42	2246	3
091713	16:29	1	r.troubled	43	2146	4
091713	16:29	1	r.scared	44	2018	4
091713	16:29	1	r.magical	45	3119	9
091713	16:29	1	r.sickness	46	3352	1
091713	16:29	1	r.noisy	47	2136	5
091713	16:29	1	r.kerchief	48	1240	5
091713	16:29	1	r.terrified	49	2285	3
091713	16:29	1	r.melody	50	2215	9
091713	16:29	1	r.war	51	2004	1
091713	16:29	1	r.invest	52	2049	6
091713	16:29	1	r.trophy	53	3677	9
091713	16:29	1	r.success	54	1039	9
091713	16:29	1	r.yellow	55	2092	7
091713	16:29	1	r.injury	56	1879	2
091713	16:29	1	r.skyscraper	57	1369	9
091713	16:29	1	r.stink	58	2040	1
091713	16:29	1	r.mutilate	59	1972	5
091713	16:29	1	r.frigid	60	907	5
091713	16:29	1	howtype	1	14123	7
091813	13:32	4	speed	1	10319	75
091813	13:32	4	error	2	3578	94
091813	13:32	4	whichhand	3	9377	right
091813	13:32	4	f.shreese	1	13395	7
091813	13:32	4	f.dooch	2	4580	2
091813	13:32	4	f.grore	3	3220	2
091813	13:32	4	f.vape	4	6273	4
091813	13:32	4	f.joob	5	4909	4
091813	13:32	4	f.gwase	6	4967	6
091813	13:32	4	f.glake	7	3535	5
091813	13:32	4	f.spoog	8	5232	6
091813	13:32	4	f.dwale	9	3340	5
091813	13:32	4	f.froove	10	3710	6
091813	13:32	4	f.throche	11	3063	4
091813	13:32	4	f.skashe	12	6754	6
091813	13:32	4	f.snoose	13	2028	9
091813	13:32	4	f.frothe	14	4024	4
091813	13:32	4	f.skoog	15	3390	6
091813	13:32	4	f.gwame	16	4044	8
091813	13:32	4	f.plooch	17	3353	7
091813	13:32	4	f.plook	18	4417	6
091813	13:32	4	f.plafe	19	3183	7
091813	13:32	4	f.vade	20	4229	4
091813	13:32	4	f.spashe	21	3546	6
091813	13:32	4	f.vook	22	4066	4
091813	13:32	4	f.thache	23	2302	6
091813	13:32	4	f.spogue	24	3688	6
091813	13:32	4	f.swoog	25	3515	7
091813	13:32	4	f.choom	26	2772	6
091813	13:32	4	f.snoshe	27	2259	6
091813	13:32	4	f.klope	28	8190	5
091813	13:32	4	f.smabe	29	3614	6
091813	13:32	4	f.krogue	30	1916	6
091813	13:32	4	f.zoge	31	4124	4
091813	13:32	4	f.ploosh	32	2782	8
091813	13:32	4	f.twage	33	3245	6
091813	13:32	4	f.froge	34	2729	8
091813	13:32	4	f.thwore	35	2225	4
091813	13:32	4	f.theek	36	5206	4
091813	13:32	4	f.sleech	37	1757	4
091813	13:32	4	f.sleege	38	1996	6
091813	13:32	4	f.prooge	39	3570	6
091813	13:32	4	f.dwaze	40	2026	4
091813	13:32	4	f.shrole	41	1943	6
091813	13:32	4	f.drathe	42	4198	5
091813	13:32	4	f.groge	43	4005	4
091813	13:32	4	f.dwoosh	44	3211	8
091813	13:32	4	f.plole	45	3512	6
091813	13:32	4	f.threeb	46	5290	4
091813	13:32	4	f.bave	47	3949	4
091813	13:32	4	f.steeg	48	4869	4
091813	13:32	4	f.meeb	49	1993	8
091813	13:32	4	f.yafe	50	2671	8
091813	13:32	4	f.thweer	51	2474	1
091813	13:32	4	f.sweese	52	5205	6
091813	13:32	4	f.lole	53	1860	6
091813	13:32	4	f.dwogue	54	2175	6
091813	13:32	4	f.zeech	55	2638	4
091813	13:32	4	f.swoche	56	1818	6
091813	13:32	4	f.gwaze	57	1647	6
091813	13:32	4	f.troke	58	2338	4
091813	13:32	4	f.frooth	59	5451	6
091813	13:32	4	f.dague	60	6400	6
091813	13:32	4	r.confident	1	3944	9
091813	13:32	4	r.art	2	1816	9
091813	13:32	4	r.destruction	3	2461	1
091813	13:32	4	r.warmth	4	1512	9
091813	13:32	4	r.salute	5	1969	9
091813	13:32	4	r.terrific	6	1272	9
091813	13:32	4	r.hairdryer	7	3387	6
091813	13:32	4	r.sunset	8	1866	9
091813	13:32	4	r.nasty	9	2196	2
091813	13:32	4	r.aroused	10	4914	6
091813	13:32	4	r.victory	11	2492	9
091813	13:32	4	r.derelict	12	4062	4
091813	13:32	4	r.dress	13	1466	9
091813	13:32	4	r.quick	14	3077	7
091813	13:32	4	r.pervert	15	2183	1
091813	13:32	4	r.drown	16	2310	1
091813	13:32	4	r.vanity	17	6087	8
091813	13:32	4	r.radiator	18	3403	4
091813	13:32	4	r.famous	19	1769	9
091813	13:32	4	r.surgery	20	4808	6
091813	13:32	4	r.exercise	21	2382	9
091813	13:32	4	r.useful	22	4299	8
091813	13:32	4	r.pride	23	1767	8
091813	13:32	4	r.street	24	4398	6
091813	13:32	4	r.baby	25	1780	9
091813	13:32	4	r.daylight	26	1258	9
091813	13:32	4	r.rabies	27	2214	1
091813	13:32	4	r.circus	28	3043	7
091813	13:32	4	r.despise	29	2543	1
091813	13:32	4	r.star	30	1487	9
091813	13:32	4	r.bees	31	4257	4
091813	13:32	4	r.nervous	32	3093	4
091813	13:32	4	r.puppy	33	1823	9
091813	13:32	4	r.hooker	34	2484	4
091813	13:32	4	r.guilty	35	3390	3
091813	13:32	4	r.hate	36	1781	1
091813	13:32	4	r.insult	37	3500	1
091813	13:32	4	r.dove	38	3302	8
091813	13:32	4	r.wink	39	2183	9
091813	13:32	4	r.fantasy	40	1886	9
091813	13:32	4	r.untroubled	41	2384	6
091813	13:32	4	r.writer	42	2230	8
091813	13:32	4	r.music	43	1715	9
091813	13:32	4	r.sunlight	44	5068	9
091813	13:32	4	r.face	45	2840	6
091813	13:32	4	r.field	46	8892	6
091813	13:32	4	r.breeze	47	3568	8
091813	13:32	4	r.delight	48	3192	9
091813	13:32	4	r.mangle	49	5119	4
091813	13:32	4	r.incentive	50	2969	8
091813	13:32	4	r.justice	51	1888	9
091813	13:32	4	r.mind	52	2554	6
091813	13:32	4	r.dentist	53	2666	4
091813	13:32	4	r.museum	54	3637	8
091813	13:32	4	r.quarrel	55	1626	1
091813	13:32	4	r.shotgun	56	9717	4
091813	13:32	4	r.narcotic	57	2138	1
091813	13:32	4	r.unhappy	58	1122	1
091813	13:32	4	r.leprosy	59	6354	1
091813	13:32	4	r.fat	60	1740	1
091813	13:32	4	howtype	1	9410	7
091813	15:32	1	speed	1	3065	78
091813	15:32	1	error	2	2742	97
091813	15:32	1	whichhand	3	7330	Right
091813	15:32	1	r.watch	1	9091	8
091813	15:32	1	r.fame	2	2959	9
091813	15:32	1	r.sin	3	2087	1
091813	15:32	1	r.ship	4	5041	6
091813	15:32	1	r.couple	5	2310	9
091813	15:32	1	r.grenade	6	2951	1
091813	15:32	1	r.industry	7	2271	6
091813	15:32	1	r.hide	8	1762	4
091813	15:32	1	r.corner	9	3297	5
091813	15:32	1	r.obey	10	2219	6
091813	15:32	1	r.blister	11	2448	2
091813	15:32	1	r.malice	12	1484	2
091813	15:32	1	r.spirit	13	2934	7
091813	15:32	1	r.honest	14	1175	7
091813	15:32	1	r.lottery	15	1133	8
091813	15:32	1	r.cliff	16	1790	6
091813	15:32	1	r.panic	17	1796	3
091813	15:32	1	r.scorching	18	1521	1
091813	15:32	1	r.dove	19	1986	9
091813	15:32	1	r.option	20	2040	8
091813	15:32	1	r.cabinet	21	1549	5
091813	15:32	1	r.rude	22	3428	1
091813	15:32	1	r.hooker	23	1177	1
091813	15:32	1	r.birthday	24	1679	9
091813	15:32	1	r.narcotic	25	2905	1
091813	15:32	1	r.world	26	1467	7
091813	15:32	1	r.outdoors	27	1606	7
091813	15:32	1	r.intercourse	28	1539	9
091813	15:32	1	r.ridicule	29	2388	2
091813	15:32	1	r.utensil	30	1338	3
091813	15:32	1	r.hydrant	31	1338	3
091813	15:32	1	r.garbage	32	1450	2
091813	15:32	1	r.germs	33	1214	1
091813	15:32	1	r.punishment	34	779	1
091813	15:32	1	r.fabric	35	1577	5
091813	15:32	1	r.man	36	902	5
091813	15:32	1	r.freedom	37	1672	7
091813	15:32	1	r.lie	38	2099	2
091813	15:32	1	r.shamed	39	1540	2
091813	15:32	1	r.python	40	1245	3
091813	15:32	1	r.optimism	41	1936	8
091813	15:32	1	r.pig	42	1760	7
091813	15:32	1	r.consoled	43	2207	6
091813	15:32	1	r.maniac	44	1781	2
091813	15:32	1	r.clouds	45	931	3
091813	15:32	1	r.scurvy	46	2059	5
091813	15:32	1	r.lost	47	3406	1
091813	15:32	1	r.rabbit	48	1852	9
091813	15:32	1	r.disturb	49	2383	3
091813	15:32	1	r.deceit	50	1590	3
091813	15:32	1	r.blasphemy	51	1221	2
091813	15:32	1	r.lawsuit	52	1993	1
091813	15:32	1	r.skyscraper	53	1767	5
091813	15:32	1	r.tennis	54	1390	4
091813	15:32	1	r.guillotine	55	2132	1
091813	15:32	1	r.tumor	56	860	1
091813	15:32	1	r.vanity	57	623	1
091813	15:32	1	r.capable	58	1764	6
091813	15:32	1	r.life	59	2370	9
091813	15:32	1	r.hostile	60	2122	2
091813	15:32	1	f.joche	1	6240	4
091813	15:32	1	f.yeep	2	3046	2
091813	15:32	1	f.thoshe	3	1842	3
091813	15:32	1	f.kloog	4	2374	1
091813	15:32	1	f.blooge	5	885	1
091813	15:32	1	f.thwope	6	2815	4
091813	15:32	1	f.yoge	7	1229	6
091813	15:32	1	f.yoog	8	945	7
091813	15:32	1	f.groge	9	1240	4
091813	15:32	1	f.thache	10	1444	3
091813	15:32	1	f.swobe	11	1639	4
091813	15:32	1	f.wooth	12	1268	7
091813	15:32	1	f.vove	13	1678	8
091813	15:32	1	f.pleer	14	2936	7
091813	15:32	1	f.smole	15	3417	7
091813	15:32	1	f.froge	16	4822	2
091813	15:32	1	f.plove	17	2324	7
091813	15:32	1	f.swothe	18	1014	3
091813	15:32	1	f.sloog	19	1130	8
091813	15:32	1	f.shooch	20	1002	2
091813	15:32	1	f.sneef	21	1735	1
091813	15:32	1	f.brobe	22	3615	7
091813	15:32	1	f.dreet	23	1621	3
091813	15:32	1	f.swame	24	1018	6
091813	15:32	1	f.dathe	25	1031	4
091813	15:32	1	f.froche	26	419	5
091813	15:32	1	f.prate	27	1927	7
091813	15:32	1	f.thwore	28	3256	7
091813	15:32	1	f.kwaze	29	1659	3
091813	15:32	1	f.thwook	30	2830	4
091813	15:32	1	f.gwaze	31	1291	4
091813	15:32	1	f.skoosh	32	1445	6
091813	15:32	1	f.neech	33	888	5
091813	15:32	1	f.spame	34	867	7
091813	15:32	1	f.feeb	35	845	7
091813	15:32	1	f.treege	36	1312	3
091813	15:32	1	f.dwoog	37	2065	5
091813	15:32	1	f.flashe	38	1076	4
091813	15:32	1	f.vage	39	982	6
091813	15:32	1	f.zape	40	3388	3
091813	15:32	1	f.twore	41	1563	6
091813	15:32	1	f.sleege	42	482	6
091813	15:32	1	f.droot	43	460	5
091813	15:32	1	f.pleeth	44	1038	2
091813	15:32	1	f.plale	45	2338	7
091813	15:32	1	f.thwase	46	1339	7
091813	15:32	1	f.dwafe	47	914	7
091813	15:32	1	f.thweet	48	1195	3
091813	15:32	1	f.beeve	49	1761	5
091813	15:32	1	f.smoshe	50	1216	4
091813	15:32	1	f.spoot	51	1229	6
091813	15:32	1	f.kroob	52	1784	3
091813	15:32	1	f.kweese	53	2319	7
091813	15:32	1	f.stogue	54	760	3
091813	15:32	1	f.gwoof	55	470	6
091813	15:32	1	f.skooge	56	769	7
091813	15:32	1	f.glale	57	767	6
091813	15:32	1	f.sweem	58	862	3
091813	15:32	1	f.gleese	59	1129	1
091813	15:32	1	f.zoop	60	1097	9
091813	15:32	1	howtype	1	10465	5
091813	16:01	1	speed	1	6909	54
091813	16:01	1	error	2	2920	100
091813	16:01	1	whichhand	3	5210	right
091813	16:01	1	f.preege	1	6971	4
091813	16:01	1	f.treek	2	2475	6
091813	16:01	1	f.troof	3	1455	6
091813	16:01	1	f.skobe	4	2130	5
091813	16:01	1	f.shrave	5	1995	6
091813	16:01	1	f.kwose	6	1272	6
091813	16:01	1	f.jooch	7	1291	6
091813	16:01	1	f.shroosh	8	1229	5
091813	16:01	1	f.throol	9	953	5
091813	16:01	1	f.kwabe	10	1944	4
091813	16:01	1	f.threed	11	1480	4
091813	16:01	1	f.thweeze	12	2490	5
091813	16:01	1	f.theet	13	1797	5
091813	16:01	1	f.kweem	14	1122	4
091813	16:01	1	f.smeem	15	1075	5
091813	16:01	1	f.throod	16	1638	5
091813	16:01	1	f.stogue	17	562	5
091813	16:01	1	f.gwose	18	976	5
091813	16:01	1	f.twool	19	1494	6
091813	16:01	1	f.smoosh	20	696	6
091813	16:01	1	f.yane	21	945	6
091813	16:01	1	f.shrate	22	1288	5
091813	16:01	1	f.yooge	23	1114	4
091813	16:01	1	f.thwool	24	1003	5
091813	16:01	1	f.droor	25	3793	6
091813	16:01	1	f.theek	26	1430	6
091813	16:01	1	f.gwooge	27	1131	5
091813	16:01	1	f.zoog	28	995	6
091813	16:01	1	f.tofe	29	1152	5
091813	16:01	1	f.thwame	30	1591	5
091813	16:01	1	f.flofe	31	2502	4
091813	16:01	1	f.blothe	32	799	4
091813	16:01	1	f.skooth	33	716	4
091813	16:01	1	f.gwabe	34	1165	4
091813	16:01	1	f.leech	35	1812	6
091813	16:01	1	f.threer	36	1289	5
091813	16:01	1	f.flabe	37	699	5
091813	16:01	1	f.kwoge	38	2036	5
091813	16:01	1	f.thrage	39	985	5
091813	16:01	1	f.poom	40	1527	6
091813	16:01	1	f.thweeg	41	1127	6
091813	16:01	1	f.yeep	42	2143	5
091813	16:01	1	f.dwoove	43	1414	6
091813	16:01	1	f.swoof	44	1547	6
091813	16:01	1	f.stooch	45	1011	6
091813	16:01	1	f.nooth	46	1087	6
091813	16:01	1	f.kreesh	47	1745	4
091813	16:01	1	f.thobe	48	1553	5
091813	16:01	1	f.cheege	49	1057	6
091813	16:01	1	f.frave	50	500	6
091813	16:01	1	f.chabe	51	661	6
091813	16:01	1	f.gwoop	52	600	6
091813	16:01	1	f.dwose	53	661	6
091813	16:01	1	f.vave	54	399	6
091813	16:01	1	f.shage	55	685	6
091813	16:01	1	f.klashe	56	967	5
091813	16:01	1	f.krobe	57	1709	6
091813	16:01	1	f.krathe	58	742	6
091813	16:01	1	f.brooge	59	1222	5
091813	16:01	1	f.snose	60	1075	6
091813	16:01	1	r.pain	1	2946	7
091813	16:01	1	r.diver	2	2033	7
091813	16:01	1	r.owl	3	510	7
091813	16:01	1	r.shamed	4	1295	8
091813	16:01	1	r.deserter	5	2528	7
091813	16:01	1	r.odd	6	760	8
091813	16:01	1	r.paint	7	1175	8
091813	16:01	1	r.shadow	8	302	8
091813	16:01	1	r.elegant	9	678	8
091813	16:01	1	r.incentive	10	2105	7
091813	16:01	1	r.scared	11	1274	8
091813	16:01	1	r.hat	12	892	8
091813	16:01	1	r.frigid	13	1854	8
091813	16:01	1	r.inspired	14	1249	9
091813	16:01	1	r.demon	15	1653	7
091813	16:01	1	r.dreary	16	2073	8
091813	16:01	1	r.music	17	1276	9
091813	16:01	1	r.hostage	18	1190	7
091813	16:01	1	r.family	19	973	8
091813	16:01	1	r.intruder	20	1443	7
091813	16:01	1	r.autumn	21	1783	9
091813	16:01	1	r.despairing	22	1925	7
091813	16:01	1	r.miracle	23	1446	9
091813	16:01	1	r.item	24	946	8
091813	16:01	1	r.cash	25	1513	9
091813	16:01	1	r.narcotic	26	1721	8
091813	16:01	1	r.rejected	27	1426	7
091813	16:01	1	r.luscious	28	1310	9
091813	16:01	1	r.scalding	29	1455	8
091813	16:01	1	r.jealousy	30	1619	8
091813	16:01	1	r.fire	31	1240	8
091813	16:01	1	r.rollercoaster	32	1156	9
091813	16:01	1	r.windmill	33	1147	8
091813	16:01	1	r.activate	34	1507	9
091813	16:01	1	r.confident	35	1444	9
091813	16:01	1	r.pervert	36	1664	8
091813	16:01	1	r.obscene	37	1651	8
091813	16:01	1	r.crutch	38	2806	8
091813	16:01	1	r.swamp	39	1458	9
091813	16:01	1	r.drown	40	1071	8
091813	16:01	1	r.abduction	41	1320	8
091813	16:01	1	r.powerful	42	2266	9
091813	16:01	1	r.soft	43	940	8
091813	16:01	1	r.valentine	44	861	9
091813	16:01	1	r.column	45	640	9
091813	16:01	1	r.kerchief	46	1467	8
091813	16:01	1	r.father	47	998	8
091813	16:01	1	r.banner	48	1460	8
091813	16:01	1	r.scum	49	1142	7
091813	16:01	1	r.palace	50	1263	7
091813	16:01	1	r.flood	51	1601	8
091813	16:01	1	r.disaster	52	2207	7
091813	16:01	1	r.nurse	53	1869	7
091813	16:01	1	r.dove	54	1160	8
091813	16:01	1	r.maggot	55	1334	7
091813	16:01	1	r.adult	56	2718	8
091813	16:01	1	r.repentant	57	1455	7
091813	16:01	1	r.coarse	58	1195	8
091813	16:01	1	r.penis	59	1504	7
091813	16:01	1	r.fight	60	1066	8
091813	16:01	1	howtype	1	10986	6
091813	16:25	1	speed	1	5576	47
091813	16:25	1	error	2	2699	95
091813	16:25	1	whichhand	3	6040	Right
091813	16:25	1	r.upset	1	8779	2
091813	16:25	1	r.scar	2	12403	4
091813	16:25	1	r.danger	3	3085	2
091813	16:25	1	r.immature	4	3367	5
091813	16:25	1	r.proud	5	2415	9
091813	16:25	1	r.shamed	6	2260	2
091813	16:25	1	r.crutch	7	2559	4
091813	16:25	1	r.gossip	8	2423	5
091813	16:25	1	r.narcotic	9	2523	3
091813	16:25	1	r.luscious	10	1933	5
091813	16:25	1	r.nonchalant	11	2165	6
091813	16:25	1	r.prairie	12	1628	8
091813	16:25	1	r.nuisance	13	2248	5
091813	16:25	1	r.cord	14	7084	4
091813	16:25	1	r.lantern	15	2248	6
091813	16:25	1	r.grin	16	3188	7
091813	16:25	1	r.hate	17	2178	1
091813	16:25	1	r.scared	18	1905	1
091813	16:25	1	r.farm	19	3778	6
091813	16:25	1	r.paint	20	1522	6
091813	16:25	1	r.bird	21	1826	5
091813	16:25	1	r.trust	22	5638	3
091813	16:25	1	r.slum	23	1668	5
091813	16:25	1	r.detest	24	2263	4
091813	16:25	1	r.politeness	25	1818	9
091813	16:25	1	r.pleasure	26	1031	9
091813	16:25	1	r.hungry	27	2923	4
091813	16:25	1	r.mosquito	28	1700	5
091813	16:25	1	r.kettle	29	1310	6
091813	16:25	1	r.fatigued	30	2526	2
091813	16:25	1	r.favor	31	1367	6
091813	16:25	1	r.revolver	32	2942	1
091813	16:25	1	r.consoled	33	2030	5
091813	16:25	1	r.miracle	34	1842	9
091813	16:25	1	r.palace	35	1318	9
091813	16:25	1	r.dream	36	903	9
091813	16:25	1	r.thief	37	2168	4
091813	16:25	1	r.sapphire	38	2279	8
091813	16:25	1	r.lavish	39	5689	9
091813	16:25	1	r.champ	40	1356	8
091813	16:25	1	r.event	41	1949	7
091813	16:25	1	r.adorable	42	1308	8
091813	16:25	1	r.toy	43	1974	5
091813	16:25	1	r.joke	44	1244	5
091813	16:25	1	r.bathroom	45	2432	2
091813	16:25	1	r.robber	46	1645	3
091813	16:25	1	r.pillow	47	4136	5
091813	16:25	1	r.quarrel	48	969	5
091813	16:25	1	r.blister	49	2304	2
091813	16:25	1	r.bright	50	2457	6
091813	16:25	1	r.ecstasy	51	1941	5
091813	16:25	1	r.pet	52	1734	6
091813	16:25	1	r.optimism	53	1414	9
091813	16:25	1	r.crash	54	1755	1
091813	16:25	1	r.nervous	55	1194	1
091813	16:25	1	r.grenade	56	1568	1
091813	16:25	1	r.disturb	57	1054	2
091813	16:25	1	r.malaria	58	1842	1
091813	16:25	1	r.square	59	1566	5
091813	16:25	1	r.displeased	60	2437	3
091813	16:25	1	f.drooch	1	5330	3
091813	16:25	1	f.shobe	2	8396	2
091813	16:25	1	f.prage	3	2236	5
091813	16:25	1	f.throob	4	4104	3
091813	16:25	1	f.krofe	5	3026	5
091813	16:25	1	f.gweel	6	2735	7
091813	16:25	1	f.skashe	7	7455	4
091813	16:25	1	f.neef	8	3677	6
091813	16:25	1	f.flache	9	2216	5
091813	16:25	1	f.lale	10	1749	9
091813	16:25	1	f.pathe	11	2532	6
091813	16:25	1	f.dween	12	2461	4
091813	16:25	1	f.breesh	13	2320	2
091813	16:25	1	f.theeth	14	2257	5
091813	16:25	1	f.zage	15	1837	6
091813	16:25	1	f.drothe	16	1969	2
091813	16:25	1	f.plore	17	984	3
091813	16:25	1	f.drade	18	2030	3
091813	16:25	1	f.throog	19	1418	4
091813	16:25	1	f.shrobe	20	1719	6
091813	16:25	1	f.skoge	21	1600	4
091813	16:25	1	f.kweeve	22	3997	5
091813	16:25	1	f.zave	23	2180	8
091813	16:25	1	f.breeg	24	1490	8
091813	16:25	1	f.yeep	25	1485	9
091813	16:25	1	f.kwood	26	3494	6
091813	16:25	1	f.vape	27	1577	4
091813	16:25	1	f.thashe	28	1071	3
091813	16:25	1	f.tove	29	1745	4
091813	16:25	1	f.gweeve	30	1225	5
091813	16:25	1	f.gweeg	31	1774	5
091813	16:25	1	f.twobe	32	1133	6
091813	16:25	1	f.thwoosh	33	4860	6
091813	16:25	1	f.gwoot	34	1321	4
091813	16:25	1	f.slofe	35	1769	1
091813	16:25	1	f.krage	36	864	1
091813	16:25	1	f.slole	37	2723	5
091813	16:25	1	f.dobe	38	2068	5
091813	16:25	1	f.smoof	39	1727	6
091813	16:25	1	f.shrague	40	1167	4
091813	16:25	1	f.gweek	41	3846	7
091813	16:25	1	f.breeb	42	1986	4
091813	16:25	1	f.soog	43	1689	2
091813	16:25	1	f.snove	44	1027	2
091813	16:25	1	f.koog	45	1047	3
091813	16:25	1	f.blooge	46	4714	6
091813	16:25	1	f.beesh	47	2292	6
091813	16:25	1	f.dwoof	48	990	4
091813	16:25	1	f.gwove	49	4556	2
091813	16:25	1	f.thoove	50	1165	2
091813	16:25	1	f.glase	51	2891	6
091813	16:25	1	f.sloosh	52	790	7
091813	16:25	1	f.deeg	53	860	8
091813	16:25	1	f.bogue	54	2023	4
091813	16:25	1	f.throre	55	6228	1
091813	16:25	1	f.thwate	56	969	1
091813	16:25	1	f.frafe	57	2120	5
091813	16:25	1	f.wache	58	1801	5
091813	16:25	1	f.preet	59	4462	8
091813	16:25	1	f.zoop	60	6778	8
091813	16:25	1	howtype	1	19128	6
091913	11:02	1	speed	1	3102	27
091913	11:02	1	error	2	2445	96
091913	11:02	1	whichhand	3	6411	right
091913	11:02	1	f.seesh	1	10018	3
091913	11:02	1	f.thwoche	2	4218	3
091913	11:02	1	f.choom	3	3823	2
091913	11:02	1	f.dwate	4	3309	1
091913	11:02	1	f.thwooch	5	2998	2
091913	11:02	1	f.bleef	6	3244	2
091913	11:02	1	f.thwove	7	3648	4
091913	11:02	1	f.gwoon	8	4956	6
091913	11:02	1	f.slool	9	2885	4
091913	11:02	1	f.boog	10	6040	7
091913	11:02	1	f.flage	11	3901	7
091913	11:02	1	f.shrone	12	4328	7
091913	11:02	1	f.spave	13	3352	3
091913	11:02	1	f.greeb	14	4241	3
091913	11:02	1	f.brogue	15	2598	1
091913	11:02	1	f.tweep	16	3028	7
091913	11:02	1	f.thwofe	17	3519	8
091913	11:02	1	f.dwooch	18	3769	4
091913	11:02	1	f.krashe	19	4697	8
091913	11:02	1	f.smobe	20	3404	5
091913	11:02	1	f.krore	21	1698	6
091913	11:02	1	f.trome	22	4211	6
091913	11:02	1	f.skeeth	23	2737	6
091913	11:02	1	f.joof	24	3945	4
091913	11:02	1	f.stooth	25	3290	5
091913	11:02	1	f.deeg	26	5260	5
091913	11:02	1	f.beesh	27	4808	5
091913	11:02	1	f.gwoshe	28	2494	7
091913	11:02	1	f.theep	29	2072	6
091913	11:02	1	f.voke	30	3179	7
091913	11:02	1	f.thooge	31	2026	6
091913	11:02	1	f.sweem	32	3406	5
091913	11:02	1	f.drofe	33	3596	4
091913	11:02	1	f.yeege	34	2009	4
091913	11:02	1	f.thafe	35	2975	2
091913	11:02	1	f.prake	36	1591	1
091913	11:02	1	f.slooge	37	1205	1
091913	11:02	1	f.chome	38	2441	3
091913	11:02	1	f.weeg	39	5078	7
091913	11:02	1	f.glafe	40	2297	3
091913	11:02	1	f.kwose	41	2364	6
091913	11:02	1	f.groche	42	2211	4
091913	11:02	1	f.nogue	43	2800	6
091913	11:02	1	f.thate	44	1934	7
091913	11:02	1	f.sleeb	45	4822	1
091913	11:02	1	f.weech	46	3788	2
091913	11:02	1	f.kwame	47	4338	5
091913	11:02	1	f.twooge	48	4140	5
091913	11:02	1	f.frathe	49	1013	3
091913	11:02	1	f.rashe	50	2113	3
091913	11:02	1	f.treek	51	1363	4
091913	11:02	1	f.skeeb	52	5177	2
091913	11:02	1	f.gwoot	53	2232	4
091913	11:02	1	f.shrave	54	3373	5
091913	11:02	1	f.gleeg	55	3852	3
091913	11:02	1	f.stathe	56	9272	4
091913	11:02	1	f.greesh	57	3086	6
091913	11:02	1	f.stague	58	2025	2
091913	11:02	1	f.sleer	59	2349	4
091913	11:02	1	f.sloche	60	5892	6
091913	11:02	1	r.ambition	1	5567	9
091913	11:02	1	r.nature	2	4407	8
091913	11:02	1	r.blase	3	6950	2
091913	11:02	1	r.opinion	4	4663	6
091913	11:02	1	r.nursery	5	2763	9
091913	11:02	1	r.ace	6	2314	9
091913	11:02	1	r.chin	7	4299	5
091913	11:02	1	r.insect	8	3438	1
091913	11:02	1	r.engine	9	4170	2
091913	11:02	1	r.patriot	10	3954	7
091913	11:02	1	r.heaven	11	1994	9
091913	11:02	1	r.nipple	12	3472	7
091913	11:02	1	r.butterfly	13	2435	9
091913	11:02	1	r.debt	14	4488	1
091913	11:02	1	r.malice	15	2747	1
091913	11:02	1	r.item	16	2666	7
091913	11:02	1	r.window	17	3238	7
091913	11:02	1	r.daylight	18	2339	9
091913	11:02	1	r.nectar	19	4211	8
091913	11:02	1	r.contempt	20	5385	6
091913	11:02	1	r.magical	21	5760	8
091913	11:02	1	r.danger	22	3432	1
091913	11:02	1	r.rescue	23	4781	9
091913	11:02	1	r.weary	24	4484	4
091913	11:02	1	r.hay	25	5103	5
091913	11:02	1	r.listless	26	5802	3
091913	11:02	1	r.windmill	27	4745	6
091913	11:02	1	r.diver	28	4353	5
091913	11:02	1	r.couple	29	5130	9
091913	11:02	1	r.penthouse	30	2019	9
091913	11:02	1	r.church	31	1288	9
091913	11:02	1	r.inspired	32	1066	9
091913	11:02	1	r.sin	33	1877	1
091913	11:02	1	r.cyclone	34	1935	2
091913	11:02	1	r.violent	35	1263	1
091913	11:02	1	r.pamphlet	36	4266	6
091913	11:02	1	r.finger	37	4158	5
091913	11:02	1	r.hard	38	3598	6
091913	11:02	1	r.sex	39	2788	9
091913	11:02	1	r.irritate	40	2595	1
091913	11:02	1	r.resent	41	3105	1
091913	11:02	1	r.stench	42	1787	1
091913	11:02	1	r.pressure	43	3033	1
091913	11:02	1	r.trash	44	5213	3
091913	11:02	1	r.justice	45	2515	9
091913	11:02	1	r.neurotic	46	5333	6
091913	11:02	1	r.adorable	47	2718	8
091913	11:02	1	r.radio	48	6143	7
091913	11:02	1	r.sour	49	4064	6
091913	11:02	1	r.infant	50	2820	9
091913	11:02	1	r.prick	51	3737	3
091913	11:02	1	r.ambulance	52	3994	2
091913	11:02	1	r.abortion	53	2920	1
091913	11:02	1	r.god	54	1873	9
091913	11:02	1	r.manure	55	2540	9
091913	11:02	1	r.traitor	56	3301	1
091913	11:02	1	r.hardship	57	1487	1
091913	11:02	1	r.agreement	58	2993	8
091913	11:02	1	r.assassin	59	2895	1
091913	11:02	1	r.horse	60	4257	7
091913	11:02	1	howtype	1	10364	3
091913	11:32	1	speed	1	6448	44
091913	11:32	1	error	2	2428	93
091913	11:32	1	whichhand	3	8985	right
091913	11:32	1	f.skome	1	7350	1
091913	11:32	1	f.neef	2	4023	1
091913	11:32	1	f.prooge	3	2637	1
091913	11:32	1	f.smabe	4	2761	2
091913	11:32	1	f.smafe	5	3081	2
091913	11:32	1	f.swooge	6	1828	1
091913	11:32	1	f.shrague	7	3215	1
091913	11:32	1	f.voop	8	2477	2
091913	11:32	1	f.zague	9	2999	2
091913	11:32	1	f.nogue	10	1365	3
091913	11:32	1	f.plave	11	6764	4
091913	11:32	1	f.smoose	12	3397	5
091913	11:32	1	f.kleef	13	1811	6
091913	11:32	1	f.pleep	14	3991	2
091913	11:32	1	f.sweech	15	1767	3
091913	11:32	1	f.throshe	16	1638	5
091913	11:32	1	f.dreef	17	1546	1
091913	11:32	1	f.kwove	18	1281	2
091913	11:32	1	f.smoop	19	1179	1
091913	11:32	1	f.nathe	20	1657	3
091913	11:32	1	f.droog	21	2437	1
091913	11:32	1	f.sweeb	22	2345	2
091913	11:32	1	f.thrashe	23	1953	1
091913	11:32	1	f.kwode	24	2377	2
091913	11:32	1	f.blobe	25	3031	5
091913	11:32	1	f.snooth	26	3580	4
091913	11:32	1	f.kreef	27	1683	1
091913	11:32	1	f.brathe	28	2381	2
091913	11:32	1	f.freeth	29	2555	4
091913	11:32	1	f.gwoor	30	1275	3
091913	11:32	1	f.dwache	31	3118	1
091913	11:32	1	f.gwooge	32	1519	1
091913	11:32	1	f.pleeth	33	976	2
091913	11:32	1	f.thweech	34	1775	4
091913	11:32	1	f.skook	35	2421	3
091913	11:32	1	f.dreeze	36	1523	1
091913	11:32	1	f.shrate	37	1851	2
091913	11:32	1	f.smape	38	1991	1
091913	11:32	1	f.slame	39	2149	1
091913	11:32	1	f.wathe	40	2333	7
091913	11:32	1	f.shrobe	41	1821	1
091913	11:32	1	f.gwaze	42	1618	8
091913	11:32	1	f.sleege	43	2079	2
091913	11:32	1	f.smoom	44	1986	2
091913	11:32	1	f.gwobe	45	2592	1
091913	11:32	1	f.breep	46	2782	6
091913	11:32	1	f.bague	47	3477	5
091913	11:32	1	f.shreesh	48	2856	6
091913	11:32	1	f.vobe	49	2076	5
091913	11:32	1	f.stobe	50	2351	4
091913	11:32	1	f.loche	51	1822	2
091913	11:32	1	f.droze	52	1731	1
091913	11:32	1	f.zeech	53	1331	2
091913	11:32	1	f.thwose	54	1732	1
091913	11:32	1	f.neeb	55	1812	1
091913	11:32	1	f.kwade	56	1129	2
091913	11:32	1	f.thwale	57	1833	8
091913	11:32	1	f.gwane	58	3573	6
091913	11:32	1	f.gleel	59	2101	8
091913	11:32	1	f.toosh	60	2238	6
091913	11:32	1	r.corpse	1	2705	2
091913	11:32	1	r.mystic	2	2987	5
091913	11:32	1	r.activate	3	2026	7
091913	11:32	1	r.millionaire	4	1327	9
091913	11:32	1	r.runner	5	1431	8
091913	11:32	1	r.killer	6	1211	1
091913	11:32	1	r.assassin	7	1192	1
091913	11:32	1	r.gold	8	1270	9
091913	11:32	1	r.magical	9	1321	8
091913	11:32	1	r.jug	10	1689	5
091913	11:32	1	r.chin	11	1371	5
091913	11:32	1	r.river	12	1570	9
091913	11:32	1	r.engaged	13	1033	9
091913	11:32	1	r.deformed	14	1541	8
091913	11:32	1	r.space	15	2757	8
091913	11:32	1	r.blase	16	2413	1
091913	11:32	1	r.eat	17	1098	9
091913	11:32	1	r.milk	18	1052	9
091913	11:32	1	r.dreary	19	2031	7
091913	11:32	1	r.progress	20	1099	9
091913	11:32	1	r.paradise	21	989	9
091913	11:32	1	r.humiliate	22	1507	1
091913	11:32	1	r.scapegoat	23	1204	1
091913	11:32	1	r.cyclone	24	1394	2
091913	11:32	1	r.frustrated	25	1383	1
091913	11:32	1	r.blind	26	1037	1
091913	11:32	1	r.rigid	27	1417	1
091913	11:32	1	r.surprised	28	1150	9
091913	11:32	1	r.bath	29	1133	9
091913	11:32	1	r.pus	30	1501	1
091913	11:32	1	r.pasta	31	1255	9
091913	11:32	1	r.intimate	32	1858	9
091913	11:32	1	r.bless	33	1430	9
091913	11:32	1	r.life	34	946	9
091913	11:32	1	r.carefree	35	1233	9
091913	11:32	1	r.yacht	36	2197	8
091913	11:32	1	r.finger	37	1763	7
091913	11:32	1	r.scorn	38	1370	1
091913	11:32	1	r.glory	39	1185	9
091913	11:32	1	r.repentant	40	3263	6
091913	11:32	1	r.evil	41	1010	1
091913	11:32	1	r.palace	42	1047	9
091913	11:32	1	r.rattle	43	1090	1
091913	11:32	1	r.serious	44	1428	5
091913	11:32	1	r.spring	45	1768	9
091913	11:32	1	r.crushed	46	1095	1
091913	11:32	1	r.nursery	47	2225	9
091913	11:32	1	r.demon	48	1054	1
091913	11:32	1	r.cuddle	49	1145	9
091913	11:32	1	r.quiet	50	1152	8
091913	11:32	1	r.limber	51	1495	1
091913	11:32	1	r.door	52	1233	5
091913	11:32	1	r.war	53	1173	1
091913	11:32	1	r.concentrate	54	1532	5
091913	11:32	1	r.massacre	55	1196	1
