date	time	subject	trialcode	trialnum	latency	response
102912	13:12	54	speed	1	3019	48
102912	13:12	54	error	2	2779	97
102912	13:12	54	whichhand	3	5478	right
102912	13:12	54	1.4.boog	1	13551	6
102912	13:12	54	2.4.nude	2	7202	7
102912	13:12	54	2.2.lop	3	4154	5
102912	13:12	54	2.3.more	4	8258	7
102912	13:12	54	1.6.zote	5	4488	8
102912	13:12	54	2.6.pain	6	3011	2
102912	13:12	54	2.5.arm	7	2217	5
102912	13:12	54	1.6.vook	8	2326	5
102912	13:12	54	1.5.zyr	9	2263	6
102912	13:12	54	2.5.bar	10	1986	8
102912	13:12	54	2.6.mask	11	2440	7
102912	13:12	54	2.4.free	12	2229	9
102912	13:12	54	1.1.fryn	13	3641	6
102912	13:12	54	1.6.dofe	14	3214	5
102912	13:12	54	2.6.scar	15	2228	4
102912	13:12	54	1.1.vuy	16	2369	5
102912	13:12	54	1.3.jafe	17	1935	6
102912	13:12	54	2.2.cell	18	3448	3
102912	13:12	54	2.3.hate	19	2300	1
102912	13:12	54	1.4.moob	20	1902	5
102912	13:12	54	2.2.leap	21	1688	7
102912	13:12	54	1.3.anay	22	2458	6
102912	13:12	54	1.4.noof	23	3806	6
102912	13:12	54	1.6.joi	24	3492	7
102912	13:12	54	1.4.foob	25	2670	6
102912	13:12	54	1.4.yoof	26	6450	7
102912	13:12	54	2.6.dark	27	2359	3
102912	13:12	54	1.4.voom	28	2479	7
102912	13:12	54	1.4.moof	29	2801	5
102912	13:12	54	2.1.fun	30	1663	9
102912	13:12	54	1.5.vaf	31	1738	5
102912	13:12	54	2.3.name	32	1834	8
102912	13:12	54	2.5.unit	33	2230	7
102912	13:12	54	2.5.art	34	2075	8
102912	13:12	54	1.3.yane	35	2606	6
102912	13:12	54	1.5.bih	36	3236	5
102912	13:12	54	1.2.xad	37	3977	4
102912	13:12	54	2.2.dead	38	5240	1
102912	13:12	54	2.2.cake	39	1830	9
102912	13:12	54	2.6.milk	40	1426	9
102912	13:12	54	2.3.obey	41	2343	3
102912	13:12	54	1.4.teef	42	3143	6
102912	13:12	54	1.2.zake	43	3728	7
102912	13:12	54	1.6.vape	44	2033	5
102912	13:12	54	2.1.fur	45	3045	6
102912	13:12	54	2.1.rug	46	2209	7
102912	13:12	54	2.4.lump	47	2151	3
102912	13:12	54	2.6.cat	48	2239	2
102912	13:12	54	2.2.sex	49	2403	9
102912	13:12	54	2.5.fat	50	1809	1
102912	13:12	54	1.2.zoke	51	2463	6
102912	13:12	54	2.2.slow	52	4010	6
102912	13:12	54	1.4.toof	53	2824	7
102912	13:12	54	2.4.moon	54	1805	9
102912	13:12	54	2.5.grin	55	4410	7
102912	13:12	54	1.1.gub	56	2881	5
102912	13:12	54	2.3.star	57	1859	8
102912	13:12	54	1.1.ghun	58	2855	3
102912	13:12	54	2.4.flag	59	2387	9
102912	13:12	54	1.5.jufe	60	2265	4
102912	13:12	54	2.1.thy	61	2949	4
102912	13:12	54	2.1.bug	62	1852	8
102912	13:12	54	1.1.ryng	63	1680	6
102912	13:12	54	1.5.yeb	64	2155	5
102912	13:12	54	2.4.foam	65	2802	9
102912	13:12	54	1.1.guf	66	1896	4
102912	13:12	54	1.3.yave	67	2506	6
102912	13:12	54	1.3.yome	68	3051	5
102912	13:12	54	1.6.nilo	69	3471	5
102912	13:12	54	1.2.leel	70	2515	5
102912	13:12	54	2.5.bus	71	3668	3
102912	13:12	54	2.1.rut	72	1960	3
102912	13:12	54	1.2.likk	73	2511	7
102912	13:12	54	1.1.nuv	74	1585	5
102912	13:12	54	1.3.mobe	75	2319	4
102912	13:12	54	1.2.lale	76	5768	5
102912	13:12	54	1.3.tove	77	1872	5
102912	13:12	54	1.3.vabe	78	1563	6
102912	13:12	54	1.1.bryg	79	3218	4
102912	13:12	54	2.6.kin	80	3831	2
102912	13:12	54	2.4.body	81	1852	8
102912	13:12	54	2.6.evil	82	1528	1
102912	13:12	54	1.6.kabe	83	1961	7
102912	13:12	54	1.6.lim	84	6168	6
102912	13:12	54	2.5.boy	85	1697	9
102912	13:12	54	1.5.fuw	86	3098	5
102912	13:12	54	2.3.blue	87	2380	4
102912	13:12	54	1.5.feg	88	1835	5
102912	13:12	54	2.4.tidy	89	1975	9
102912	13:12	54	2.2.slid	90	2006	8
102912	13:12	54	2.6.slit	91	3500	6
102912	13:12	54	1.6.soog	92	1566	5
102912	13:12	54	2.2.lids	93	1869	6
102912	13:12	54	2.3.knot	94	3024	4
102912	13:12	54	2.3.hard	95	1397	1
102912	13:12	54	1.6.celm	96	2419	5
102912	13:12	54	1.2.dax	97	3032	6
102912	13:12	54	1.5.syg	98	1685	5
102912	13:12	54	2.5.bomb	99	2015	1
102912	13:12	54	1.3.tage	100	1444	5
102912	13:12	54	1.3.jofe	101	6184	4
102912	13:12	54	2.1.thus	102	1960	6
102912	13:12	54	1.4.yeeb	103	1383	5
102912	13:12	54	2.3.time	104	1677	8
102912	13:12	54	1.1.vun	105	1496	5
102912	13:12	54	1.5.jaj	106	2042	6
102912	13:12	54	2.1.buy	107	1758	9
102912	13:12	54	1.2.lalo	108	1510	5
102912	13:12	54	2.5.non	109	1927	6
102912	13:12	54	2.2.sick	110	1513	1
102912	13:12	54	2.3.yore	111	1705	5
102912	13:12	54	2.1.guy	112	1803	9
102912	13:12	54	1.2.zape	113	1537	5
102912	13:12	54	1.1.mur	114	1649	5
102912	13:12	54	2.6.dog	115	2012	9
102912	13:12	54	2.4.part	116	2065	6
102912	13:12	54	1.2.zeed	117	1644	5
102912	13:12	54	2.4.dump	118	5896	7
102912	13:12	54	1.5.tutk	119	2923	5
102912	13:12	54	2.1.but	120	3637	6
103012	09:50	6	speed	1	2706	50
103012	09:50	6	error	2	2505	86
103012	09:50	6	whichhand	3	8312	right
103012	09:50	6	2.2.lop	1	10333	6
103012	09:50	6	2.1.thy	2	5248	3
103012	09:50	6	2.6.mask	3	4933	6
103012	09:50	6	2.1.guy	4	7126	6
103012	09:50	6	1.4.voom	5	3480	9
103012	09:50	6	2.3.hate	6	5835	4
103012	09:50	6	1.2.zeed	7	2969	9
103012	09:50	6	2.4.body	8	6744	4
103012	09:50	6	2.6.kin	9	2849	3
103012	09:50	6	1.1.mur	10	2837	4
103012	09:50	6	2.2.cell	11	5074	4
103012	09:50	6	1.5.vaf	12	3550	7
103012	09:50	6	2.3.blue	13	4470	6
103012	09:50	6	1.4.foob	14	2594	9
103012	09:50	6	2.6.evil	15	4049	6
103012	09:50	6	2.1.thus	16	4517	5
103012	09:50	6	1.1.gub	17	3175	5
103012	09:50	6	2.6.scar	18	8054	5
103012	09:50	6	2.4.moon	19	3308	5
103012	09:50	6	1.4.toof	20	5702	3
103012	09:50	6	1.6.joi	21	6337	4
103012	09:50	6	2.2.sex	22	4954	4
103012	09:50	6	2.1.buy	23	6131	4
103012	09:50	6	2.5.non	24	5277	5
103012	09:50	6	2.4.dump	25	6576	5
103012	09:50	6	1.6.soog	26	2345	8
103012	09:50	6	1.6.lim	27	4345	6
103012	09:50	6	1.1.guf	28	3697	4
103012	09:50	6	2.3.more	29	7083	5
103012	09:50	6	2.2.lids	30	2999	4
103012	09:50	6	1.2.xad	31	3301	8
103012	09:50	6	1.3.mobe	32	2607	7
103012	09:50	6	2.1.rut	33	3757	4
103012	09:50	6	2.3.hard	34	4549	3
103012	09:50	6	2.6.dog	35	4806	4
103012	09:50	6	1.5.jufe	36	3764	8
103012	09:50	6	1.4.yoof	37	3124	6
103012	09:50	6	2.6.cat	38	2853	3
103012	09:50	6	2.3.time	39	3329	5
103012	09:50	6	2.5.unit	40	3882	2
103012	09:50	6	2.1.but	41	6373	3
103012	09:50	6	2.4.lump	42	7845	3
103012	09:50	6	2.5.bus	43	2194	5
103012	09:50	6	2.4.foam	44	9873	1
103012	09:50	6	1.3.tage	45	6406	6
103012	09:50	6	2.1.rug	46	6670	4
103012	09:50	6	1.6.zote	47	3026	8
103012	09:50	6	1.4.moob	48	2695	9
103012	09:50	6	1.5.feg	49	3817	3
103012	09:50	6	2.5.arm	50	2639	5
103012	09:50	6	1.6.kabe	51	2836	4
103012	09:50	6	1.6.vook	52	4896	5
103012	09:50	6	1.4.boog	53	3267	2
103012	09:50	6	2.5.fat	54	5302	4
103012	09:50	6	1.3.jofe	55	5761	3
103012	09:50	6	2.1.bug	56	4649	5
103012	09:50	6	2.2.slow	57	6814	4
103012	09:50	6	2.2.slid	58	4964	3
103012	09:50	6	1.3.anay	59	3740	3
103012	09:50	6	2.1.fur	60	6029	2
103012	09:50	6	1.6.nilo	61	4555	7
103012	09:50	6	2.5.grin	62	3203	6
103012	09:50	6	2.6.milk	63	4433	4
103012	09:50	6	1.5.jaj	64	4494	1
103012	09:50	6	2.2.cake	65	7345	6
103012	09:50	6	2.5.bomb	66	5482	5
103012	09:50	6	2.3.knot	67	3134	5
103012	09:50	6	2.3.yore	68	2895	4
103012	09:50	6	1.6.dofe	69	5905	2
103012	09:50	6	1.6.vape	70	6635	1
103012	09:50	6	1.3.yane	71	3377	2
103012	09:50	6	1.4.moof	72	3185	3
103012	09:50	6	1.2.zake	73	3616	3
103012	09:50	6	1.2.lale	74	6813	2
103012	09:50	6	1.1.ghun	75	6059	3
103012	09:50	6	1.2.dax	76	6088	5
103012	09:50	6	2.2.sick	77	5100	4
103012	09:50	6	1.4.yeeb	78	5343	4
103012	09:50	6	1.4.noof	79	4784	6
103012	09:50	6	1.3.tove	80	1968	6
103012	09:50	6	2.4.free	81	2735	7
103012	09:50	6	2.4.part	82	2526	5
103012	09:50	6	1.3.yave	83	2496	4
103012	09:50	6	1.5.syg	84	6154	8
103012	09:50	6	1.3.jafe	85	7843	4
103012	09:50	6	2.2.leap	86	2649	5
103012	09:50	6	1.2.zape	87	2229	1
103012	09:50	6	2.4.flag	88	10009	4
103012	09:50	6	2.2.dead	89	5585	4
103012	09:50	6	1.3.yome	90	3136	6
103012	09:50	6	1.5.fuw	91	4360	4
103012	09:50	6	2.5.bar	92	4817	6
103012	09:50	6	1.1.nuv	93	2991	5
103012	09:50	6	1.2.leel	94	2517	6
103012	09:50	6	2.6.slit	95	4511	5
103012	09:50	6	2.4.nude	96	2528	4
103012	09:50	6	1.3.vabe	97	4513	3
103012	09:50	6	2.3.obey	98	6123	2
103012	09:50	6	1.4.teef	99	2341	1
103012	09:50	6	1.2.likk	100	6285	3
103012	09:50	6	1.1.bryg	101	4649	3
103012	09:50	6	1.1.ryng	102	3254	3
103012	09:50	6	2.4.tidy	103	3282	1
103012	09:50	6	1.1.vuy	104	5061	1
103012	09:50	6	1.2.lalo	105	3945	7
103012	09:50	6	2.3.name	106	2545	5
103012	09:50	6	2.5.boy	107	3097	5
103012	09:50	6	2.1.fun	108	6227	3
103012	09:50	6	1.5.tutk	109	9888	2
103012	09:50	6	1.6.celm	110	3765	2
103012	09:50	6	2.3.star	111	3501	6
103012	09:50	6	1.5.zyr	112	5527	5
103012	09:50	6	1.5.yeb	113	2817	8
103012	09:50	6	2.6.dark	114	3566	7
103012	09:50	6	1.2.zoke	115	2701	6
103012	09:50	6	1.1.fryn	116	3767	6
103012	09:50	6	1.5.bih	117	6855	5
103012	09:50	6	2.5.art	118	3644	5
103012	09:50	6	1.1.vun	119	3928	4
103012	09:50	6	2.6.pain	120	5737	2
103012	10:51	6	speed	1	2286	46
103012	10:51	6	error	2	2333	95
103012	10:51	6	whichhand	3	10126	right
103012	10:51	6	2.3.yore	1	13485	3
103012	10:51	6	1.2.zeed	2	5075	4
103012	10:51	6	1.6.joi	3	3327	7
103012	10:51	6	2.2.sex	4	5281	5
103012	10:51	6	1.4.yeeb	5	5300	6
103012	10:51	6	2.5.art	6	2263	8
103012	10:51	6	1.2.likk	7	3978	2
103012	10:51	6	1.6.vook	8	2513	2
103012	10:51	6	1.4.moob	9	2346	3
103012	10:51	6	1.1.nuv	10	1786	4
103012	10:51	6	1.5.yeb	11	2720	6
103012	10:51	6	1.1.mur	12	3258	6
103012	10:51	6	2.3.blue	13	2934	9
103012	10:51	6	1.4.yoof	14	3462	3
103012	10:51	6	1.5.bih	15	2650	4
103012	10:51	6	2.6.cat	16	2766	2
103012	10:51	6	1.4.foob	17	2693	6
103012	10:51	6	1.4.noof	18	3416	5
103012	10:51	6	1.2.xad	19	3813	3
103012	10:51	6	1.2.zake	20	1699	4
103012	10:51	6	2.1.rut	21	2460	3
103012	10:51	6	2.5.boy	22	2840	6
103012	10:51	6	1.1.guf	23	3101	4
103012	10:51	6	2.2.dead	24	1935	1
103012	10:51	6	1.4.voom	25	1815	6
103012	10:51	6	1.3.jafe	26	4836	3
103012	10:51	6	2.6.dark	27	2033	2
103012	10:51	6	1.4.toof	28	2518	6
103012	10:51	6	2.5.grin	29	1743	9
103012	10:51	6	2.5.fat	30	1847	1
103012	10:51	6	2.5.arm	31	1875	6
103012	10:51	6	2.2.leap	32	2606	8
103012	10:51	6	1.2.dax	33	1452	3
103012	10:51	6	1.4.teef	34	1455	3
103012	10:51	6	2.4.dump	35	3867	2
103012	10:51	6	1.4.moof	36	3022	3
103012	10:51	6	2.2.sick	37	1715	1
103012	10:51	6	1.5.tutk	38	3876	3
103012	10:51	6	1.6.vape	39	3272	2
103012	10:51	6	1.1.ghun	40	2291	2
103012	10:51	6	2.6.scar	41	3446	1
103012	10:51	6	1.4.boog	42	2122	3
103012	10:51	6	1.3.anay	43	1971	5
103012	10:51	6	2.1.fur	44	1786	6
103012	10:51	6	1.5.jaj	45	2096	3
103012	10:51	6	2.3.time	46	1570	7
103012	10:51	6	2.3.hard	47	2337	3
103012	10:51	6	2.3.hate	48	1401	1
103012	10:51	6	1.5.fuw	49	2871	4
103012	10:51	6	1.3.yane	50	1634	5
103012	10:51	6	1.3.tove	51	2782	6
103012	10:51	6	1.2.lalo	52	1925	7
103012	10:51	6	1.1.fryn	53	1646	2
103012	10:51	6	1.3.yome	54	2545	6
103012	10:51	6	1.3.jofe	55	3216	4
103012	10:51	6	2.3.obey	56	3103	4
103012	10:51	6	2.4.foam	57	2521	7
103012	10:51	6	2.6.evil	58	1530	1
103012	10:51	6	2.2.cake	59	1530	9
103012	10:51	6	1.1.vun	60	1771	3
103012	10:51	6	1.5.vaf	61	2281	3
103012	10:51	6	2.4.tidy	62	2827	9
103012	10:51	6	2.4.lump	63	2065	2
103012	10:51	6	2.1.thy	64	4348	6
103012	10:51	6	1.3.tage	65	2357	2
103012	10:51	6	2.4.free	66	1900	9
103012	10:51	6	1.1.vuy	67	1478	3
103012	10:51	6	2.1.but	68	1913	6
103012	10:51	6	1.5.feg	69	2250	3
103012	10:51	6	2.4.flag	70	2149	8
103012	10:51	6	2.1.bug	71	1518	3
103012	10:51	6	1.3.vabe	72	2102	4
103012	10:51	6	1.6.soog	73	1648	3
103012	10:51	6	2.2.lop	74	4803	3
103012	10:51	6	2.4.part	75	1466	6
103012	10:51	6	2.2.cell	76	1861	7
103012	10:51	6	1.1.bryg	77	2616	4
103012	10:51	6	1.5.zyr	78	1557	6
103012	10:51	6	2.1.fun	79	1541	9
103012	10:51	6	2.6.slit	80	2429	3
103012	10:51	6	2.2.slow	81	2458	2
103012	10:51	6	2.5.bar	82	2214	7
103012	10:51	6	2.5.bus	83	3675	6
103012	10:51	6	2.3.star	84	2334	8
103012	10:51	6	2.3.knot	85	1759	2
103012	10:51	6	1.6.zote	86	1502	1
103012	10:51	6	1.2.zoke	87	1696	2
103012	10:51	6	1.6.kabe	88	1249	4
103012	10:51	6	1.3.mobe	89	2349	6
103012	10:51	6	2.4.body	90	2493	5
103012	10:51	6	2.3.more	91	1655	7
103012	10:51	6	1.6.celm	92	1506	3
103012	10:51	6	2.3.name	93	2316	6
103012	10:51	6	2.6.milk	94	1573	8
103012	10:51	6	2.1.buy	95	3316	7
103012	10:51	6	1.1.gub	96	1350	4
103012	10:51	6	2.6.pain	97	2053	1
103012	10:51	6	1.6.lim	98	2081	5
103012	10:51	6	1.1.ryng	99	2507	4
103012	10:51	6	1.2.leel	100	1941	4
103012	10:51	6	2.2.slid	101	2693	7
103012	10:51	6	2.1.guy	102	1112	7
103012	10:51	6	1.6.dofe	103	1353	2
103012	10:51	6	2.5.bomb	104	4448	2
103012	10:51	6	1.2.zape	105	2316	6
103012	10:51	6	2.4.nude	106	2438	2
103012	10:51	6	2.1.thus	107	2874	4
103012	10:51	6	1.5.syg	108	1309	3
103012	10:51	6	2.6.dog	109	1895	9
103012	10:51	6	2.2.lids	110	2304	7
103012	10:51	6	2.6.kin	111	1810	8
103012	10:51	6	2.4.moon	112	1720	9
103012	10:51	6	2.1.rug	113	2385	7
103012	10:51	6	2.5.unit	114	2631	6
103012	10:51	6	1.2.lale	115	1316	3
103012	10:51	6	1.5.jufe	116	1397	2
103012	10:51	6	1.3.yave	117	1722	2
103012	10:51	6	2.5.non	118	1803	6
103012	10:51	6	2.6.mask	119	1633	7
103012	10:51	6	1.6.nilo	120	1557	2
103012	13:53	80	speed	1	3842	28
103012	13:53	80	error	2	6448	92
103012	13:53	80	whichhand	3	14862	right 
103012	13:53	80	1.1.gub	1	14051	1
103012	13:53	80	1.2.lale	2	17387	5
103012	13:53	80	2.4.dump	3	2615	1
103012	13:53	80	1.3.jofe	4	4548	5
103012	13:53	80	1.4.noof	5	2748	5
103012	13:53	80	1.6.vape	6	2956	3
103012	13:53	80	2.2.slow	7	1492	3
103012	13:53	80	1.5.bih	8	3622	4
103012	13:53	80	1.6.vook	9	9780	6
103012	13:53	80	1.2.likk	10	1269	7
103012	13:53	80	2.1.thy	11	5968	5
103012	13:53	80	1.3.yome	12	2232	5
103012	13:53	80	2.2.lop	13	2604	1
103012	13:53	80	2.6.dark	14	1706	2
103012	13:53	80	1.2.zake	15	2892	5
103012	13:53	80	2.5.grin	16	4462	8
103012	13:53	80	2.6.scar	17	2906	3
103012	13:53	80	1.4.voom	18	3028	9
103012	13:53	80	1.4.yeeb	19	3489	5
103012	13:53	80	2.2.sex	20	1844	9
103012	13:53	80	2.4.lump	21	2304	1
103012	13:53	80	1.4.teef	22	2226	5
103012	13:53	80	2.5.bar	23	1687	9
103012	13:53	80	2.1.rug	24	2857	8
103012	13:53	80	2.5.fat	25	2013	1
103012	13:53	80	2.4.body	26	2154	5
103012	13:53	80	1.4.toof	27	2530	5
103012	13:53	80	2.4.nude	28	6690	5
103012	13:53	80	1.5.zyr	29	2670	5
103012	13:53	80	2.1.fur	30	5097	5
103012	13:53	80	2.4.part	31	1476	5
103012	13:53	80	1.5.vaf	32	1551	5
103012	13:53	80	2.1.buy	33	3207	7
103012	13:53	80	2.3.blue	34	4180	9
103012	13:53	80	2.5.arm	35	2148	8
103012	13:53	80	1.3.tove	36	3467	4
103012	13:53	80	1.2.zoke	37	1231	3
103012	13:53	80	2.6.evil	38	1483	1
103012	13:53	80	1.1.guf	39	2125	8
103012	13:53	80	1.3.vabe	40	1630	5
103012	13:53	80	1.1.vuy	41	2402	4
103012	13:53	80	2.1.fun	42	1488	9
103012	13:53	80	1.3.tage	43	5130	6
103012	13:53	80	2.3.obey	44	6116	7
103012	13:53	80	1.5.yeb	45	2326	5
103012	13:53	80	1.1.mur	46	2391	4
103012	13:53	80	1.5.fuw	47	1838	3
103012	13:53	80	1.2.lalo	48	4314	5
103012	13:53	80	1.4.boog	49	3812	7
103012	13:53	80	2.3.hate	50	1705	1
103012	13:53	80	2.6.cat	51	2211	7
103012	13:53	80	1.5.jaj	52	1113	5
103012	13:53	80	2.6.dog	53	2369	8
103012	13:53	80	1.4.yoof	54	969	5
103012	13:53	80	2.1.bug	55	1743	5
103012	13:53	80	1.5.tutk	56	1631	4
103012	13:53	80	2.2.sick	57	1492	1
103012	13:53	80	1.5.jufe	58	1934	2
103012	13:53	80	1.6.soog	59	3262	3
103012	13:53	80	1.1.nuv	60	1194	4
103012	13:53	80	2.3.hard	61	2344	5
103012	13:53	80	2.4.free	62	1712	9
103012	13:53	80	1.1.ghun	63	4329	3
103012	13:53	80	2.1.rut	64	1754	5
103012	13:53	80	2.2.dead	65	3514	5
103012	13:53	80	2.2.cake	66	3435	9
103012	13:53	80	2.4.tidy	67	2160	9
103012	13:53	80	1.2.leel	68	3752	6
103012	13:53	80	2.5.bomb	69	2808	1
103012	13:53	80	1.3.yave	70	3070	7
103012	13:53	80	1.6.lim	71	5105	2
103012	13:53	80	2.6.milk	72	2692	8
103012	13:53	80	1.6.kabe	73	2950	5
103012	13:53	80	2.6.slit	74	4751	1
103012	13:53	80	2.2.lids	75	2663	8
103012	13:53	80	1.3.anay	76	1395	6
103012	13:53	80	2.3.yore	77	1465	4
103012	13:53	80	1.1.ryng	78	1355	5
103012	13:53	80	2.5.unit	79	1651	8
103012	13:53	80	1.2.zape	80	2030	3
103012	13:53	80	1.5.feg	81	2571	5
103012	13:53	80	2.4.foam	82	2346	8
103012	13:53	80	1.2.zeed	83	2802	2
103012	13:53	80	2.4.moon	84	2144	9
103012	13:53	80	2.2.leap	85	2080	7
103012	13:53	80	2.2.slid	86	2642	3
103012	13:53	80	1.6.zote	87	2935	5
103012	13:53	80	1.4.moob	88	3176	3
103012	13:53	80	1.4.foob	89	3791	5
103012	13:53	80	2.2.cell	90	1622	5
103012	13:53	80	2.3.knot	91	2179	3
103012	13:53	80	2.1.but	92	5897	2
103012	13:53	80	2.3.more	93	5316	7
103012	13:53	80	2.4.flag	94	1742	9
103012	13:53	80	2.6.pain	95	2495	1
103012	13:53	80	2.5.non	96	3008	5
103012	13:53	80	1.3.yane	97	1206	5
103012	13:53	80	1.6.dofe	98	964	5
103012	13:53	80	2.1.guy	99	3026	5
103012	13:53	80	1.1.vun	100	3992	6
103012	13:53	80	2.5.art	101	1751	9
103012	13:53	80	1.1.fryn	102	2279	8
103012	13:53	80	1.4.moof	103	2041	3
103012	13:53	80	1.6.celm	104	1717	2
103012	13:53	80	1.1.bryg	105	1822	4
103012	13:53	80	2.1.thus	106	2211	7
103012	13:53	80	2.3.time	107	1337	9
103012	13:53	80	1.3.mobe	108	1593	3
103012	13:53	80	1.6.nilo	109	2207	4
103012	13:53	80	2.3.star	110	1525	9
103012	13:53	80	2.3.name	111	2750	9
103012	13:53	80	2.5.boy	112	1710	5
103012	13:53	80	1.2.dax	113	2071	5
103012	13:53	80	1.5.syg	114	1586	3
103012	13:53	80	1.6.joi	115	2896	7
103012	13:53	80	1.2.xad	116	2226	3
103012	13:53	80	2.6.kin	117	2456	1
103012	13:53	80	1.3.jafe	118	1355	4
103012	13:53	80	2.5.bus	119	3971	8
103012	13:53	80	2.6.mask	120	2954	9
110112	11:26	6546	speed	1	3033	39
110112	11:26	6546	error	2	1892	100
110112	11:26	6546	whichhand	3	5751	right
110112	11:26	6546	1.4.teef	1	16787	3
110112	11:26	6546	1.2.leel	2	4935	4
110112	11:26	6546	1.2.lale	3	4776	4
110112	11:26	6546	2.5.non	4	7112	4
110112	11:26	6546	2.6.slit	5	2483	5
110112	11:26	6546	2.4.moon	6	2941	6
110112	11:26	6546	2.4.dump	7	1758	6
110112	11:26	6546	1.3.yome	8	2638	4
110112	11:26	6546	1.1.ryng	9	1266	4
110112	11:26	6546	1.5.yeb	10	1725	4
110112	11:26	6546	1.1.gub	11	1374	3
110112	11:26	6546	1.2.lalo	12	1069	3
110112	11:26	6546	1.1.nuv	13	1231	3
110112	11:26	6546	1.4.moof	14	2539	4
110112	11:26	6546	1.5.jufe	15	2340	3
110112	11:26	6546	1.2.dax	16	1548	4
110112	11:26	6546	2.2.sex	17	4884	6
110112	11:26	6546	1.6.kabe	18	1511	4
110112	11:26	6546	1.4.yeeb	19	737	4
110112	11:26	6546	2.1.rug	20	1625	7
110112	11:26	6546	2.5.grin	21	2853	7
110112	11:26	6546	1.4.foob	22	1738	3
110112	11:26	6546	1.5.feg	23	2986	3
110112	11:26	6546	2.2.cell	24	1992	7
110112	11:26	6546	1.2.likk	25	1895	4
110112	11:26	6546	2.6.scar	26	3777	7
110112	11:26	6546	1.4.noof	27	1473	4
110112	11:26	6546	2.3.knot	28	3507	7
110112	11:26	6546	1.5.syg	29	1958	3
110112	11:26	6546	2.5.unit	30	3797	6
110112	11:26	6546	2.6.kin	31	2964	7
110112	11:26	6546	1.3.tage	32	1683	4
110112	11:26	6546	1.5.bih	33	2877	3
110112	11:26	6546	1.5.zyr	34	1240	3
110112	11:26	6546	1.1.vun	35	989	3
110112	11:26	6546	1.2.zoke	36	2242	3
110112	11:26	6546	1.6.celm	37	8823	3
110112	11:26	6546	2.4.tidy	38	3334	7
110112	11:26	6546	1.1.bryg	39	2015	3
110112	11:26	6546	1.5.tutk	40	1044	3
110112	11:26	6546	1.3.jofe	41	1192	3
110112	11:26	6546	1.4.moob	42	1070	3
110112	11:26	6546	2.1.but	43	1553	7
110112	11:26	6546	2.3.more	44	1528	8
110112	11:26	6546	2.6.milk	45	1544	8
110112	11:26	6546	2.3.star	46	1257	8
110112	11:26	6546	2.6.dark	47	668	8
110112	11:26	6546	1.4.boog	48	1607	3
110112	11:26	6546	2.1.bug	49	1988	7
110112	11:26	6546	1.3.yane	50	2122	3
110112	11:26	6546	2.1.guy	51	6083	8
110112	11:26	6546	1.6.vook	52	2471	3
110112	11:26	6546	2.2.dead	53	2306	7
110112	11:26	6546	2.2.slid	54	1580	8
110112	11:26	6546	2.1.thy	55	2643	6
110112	11:26	6546	1.1.vuy	56	1663	3
110112	11:26	6546	1.4.voom	57	2778	3
110112	11:26	6546	1.3.vabe	58	849	3
110112	11:26	6546	2.3.time	59	1644	7
110112	11:26	6546	2.3.obey	60	2872	8
110112	11:26	6546	2.4.part	61	1379	8
110112	11:26	6546	1.1.mur	62	1682	3
110112	11:26	6546	1.6.vape	63	2500	3
110112	11:26	6546	2.3.name	64	2685	7
110112	11:26	6546	2.2.leap	65	1376	8
110112	11:26	6546	2.2.lop	66	1503	3
110112	11:26	6546	1.6.lim	67	2936	3
110112	11:26	6546	1.1.fryn	68	769	3
110112	11:26	6546	1.1.guf	69	832	3
110112	11:26	6546	2.1.fur	70	1756	7
110112	11:26	6546	2.3.blue	71	1340	8
110112	11:26	6546	2.4.foam	72	1947	8
110112	11:26	6546	2.1.thus	73	1219	8
110112	11:26	6546	1.5.jaj	74	1912	3
110112	11:26	6546	2.6.mask	75	1913	8
110112	11:26	6546	2.5.bomb	76	1266	8
110112	11:26	6546	2.2.sick	77	781	8
110112	11:26	6546	2.1.buy	78	699	8
110112	11:26	6546	1.2.zape	79	1844	3
110112	11:26	6546	2.4.lump	80	1376	8
110112	11:26	6546	1.6.zote	81	2119	4
110112	11:26	6546	1.3.jafe	82	1960	3
110112	11:26	6546	1.1.ghun	83	1176	3
110112	11:26	6546	2.1.rut	84	2494	8
110112	11:26	6546	2.3.hard	85	1289	8
110112	11:26	6546	2.6.evil	86	811	8
110112	11:26	6546	1.4.toof	87	1392	3
110112	11:26	6546	2.4.flag	88	2166	8
110112	11:26	6546	2.4.nude	89	1725	8
110112	11:26	6546	2.6.pain	90	542	8
110112	11:26	6546	1.2.xad	91	1654	3
110112	11:26	6546	1.3.mobe	92	3602	2
110112	11:26	6546	1.6.dofe	93	1064	2
110112	11:26	6546	2.3.hate	94	4635	5
110112	11:26	6546	2.2.slow	95	2520	7
110112	11:26	6546	2.2.cake	96	1273	7
110112	11:26	6546	1.5.fuw	97	2772	3
110112	11:26	6546	2.3.yore	98	6723	3
110112	11:26	6546	2.5.boy	99	2030	9
110112	11:26	6546	1.2.zake	100	2498	3
110112	11:26	6546	1.3.tove	101	1356	3
110112	11:26	6546	2.5.bar	102	2979	8
110112	11:26	6546	2.4.body	103	1202	8
110112	11:26	6546	2.5.arm	104	9231	7
110112	11:26	6546	1.5.vaf	105	2566	3
110112	11:26	6546	2.4.free	106	3101	9
110112	11:26	6546	2.1.fun	107	1159	9
110112	11:26	6546	1.6.joi	108	1359	3
110112	11:26	6546	1.2.zeed	109	1038	3
110112	11:26	6546	1.4.yoof	110	4618	3
110112	11:26	6546	2.6.dog	111	3824	9
110112	11:26	6546	1.6.nilo	112	1445	3
110112	11:26	6546	2.2.lids	113	2336	7
110112	11:26	6546	1.6.soog	114	1841	3
110112	11:26	6546	1.3.anay	115	3332	2
110112	11:26	6546	2.5.fat	116	2861	5
110112	11:26	6546	2.6.cat	117	4601	6
110112	11:26	6546	1.3.yave	118	1727	2
110112	11:26	6546	2.5.art	119	2336	7
110112	11:26	6546	2.5.bus	120	3296	5
110512	08:57	6	speed	1	3585	46
110512	08:57	6	error	2	2239	93
110512	08:57	6	whichhand	3	5361	Left
110512	08:57	6	1.3.tove	1	6885	3
110512	08:57	6	2.5.bus	2	3121	8
110512	08:57	6	1.6.vape	3	4882	5
110512	08:57	6	2.4.moon	4	2741	9
110512	08:57	6	1.5.jufe	5	3894	2
110512	08:57	6	2.5.boy	6	3193	8
110512	08:57	6	2.6.pain	7	1944	8
110512	08:57	6	1.1.nuv	8	2368	2
110512	08:57	6	2.1.rut	9	4287	4
110512	08:57	6	1.6.joi	10	4314	2
110512	08:57	6	2.5.non	11	4524	5
110512	08:57	6	1.2.dax	12	5246	7
110512	08:57	6	2.1.fun	13	2091	9
110512	08:57	6	1.5.tutk	14	2733	1
110512	08:57	6	2.3.hate	15	3685	2
110512	08:57	6	2.5.unit	16	3480	5
110512	08:57	6	2.1.rug	17	3835	8
110512	08:57	6	2.6.scar	18	3240	5
110512	08:57	6	1.6.kabe	19	6805	3
110512	08:57	6	1.1.vun	20	2524	1
110512	08:57	6	1.1.guf	21	5269	3
110512	08:57	6	2.2.leap	22	5489	5
110512	08:57	6	1.3.jafe	23	4653	2
110512	08:57	6	2.4.part	24	10057	5
110512	08:57	6	1.6.celm	25	5296	3
110512	08:57	6	1.5.yeb	26	5218	3
110512	08:57	6	1.5.bih	27	3632	1
110512	08:57	6	2.3.time	28	3709	9
110512	08:57	6	1.5.jaj	29	4455	1
110512	08:57	6	2.6.dark	30	3708	7
110512	08:57	6	1.2.zake	31	5814	2
110512	08:57	6	1.3.yane	32	3564	1
110512	08:57	6	2.4.tidy	33	4668	6
110512	08:57	6	1.6.vook	34	9280	1
110512	08:57	6	2.1.fur	35	6165	4
110512	08:57	6	2.1.thus	36	5965	3
110512	08:57	6	1.4.moob	37	6301	8
110512	08:57	6	1.2.lale	38	5912	5
110512	08:57	6	1.4.moof	39	5379	8
110512	08:57	6	2.1.buy	40	4810	8
110512	08:57	6	1.1.vuy	41	6320	5
110512	08:57	6	1.4.foob	42	8379	6
110512	08:57	6	1.2.likk	43	6444	5
110512	08:57	6	2.3.hard	44	5569	6
110512	08:57	6	2.3.obey	45	4145	6
110512	08:57	6	1.3.anay	46	5649	8
110512	08:57	6	1.6.nilo	47	3614	8
110512	08:57	6	1.6.zote	48	5836	6
110512	08:57	6	2.4.dump	49	5201	7
110512	08:57	6	1.3.tage	50	2920	9
110512	08:57	6	1.1.gub	51	4177	6
110512	08:57	6	2.1.guy	52	3833	8
110512	08:57	6	1.5.zyr	53	7654	3
110512	08:57	6	2.6.dog	54	4891	9
110512	08:57	6	1.2.xad	55	4703	2
110512	08:57	6	1.6.dofe	56	13033	3
110512	08:57	6	1.4.teef	57	3273	1
110512	08:57	6	1.4.toof	58	4204	2
110512	08:57	6	2.5.bar	59	3075	8
110512	08:57	6	1.2.zeed	60	4894	7
110512	08:57	6	1.3.yave	61	4585	8
110512	08:57	6	2.4.foam	62	4744	8
110512	08:57	6	2.3.name	63	2633	9
110512	08:57	6	1.5.feg	64	4005	5
110512	08:57	6	1.6.soog	65	4940	6
110512	08:57	6	2.6.milk	66	3981	8
110512	08:57	6	2.3.blue	67	4500	9
110512	08:57	6	2.1.bug	68	6094	5
110512	08:57	6	2.3.knot	69	5385	4
110512	08:57	6	1.3.vabe	70	5345	4
110512	08:57	6	2.1.thy	71	2810	1
110512	08:57	6	1.5.fuw	72	5183	2
110512	08:57	6	2.2.dead	73	7847	4
110512	08:57	6	2.6.cat	74	7068	6
110512	08:57	6	2.2.slid	75	4841	5
110512	08:57	6	2.2.slow	76	3142	7
110512	08:57	6	2.6.kin	77	6919	4
110512	08:57	6	1.4.yoof	78	5370	7
110512	08:57	6	1.1.fryn	79	5482	3
110512	08:57	6	1.4.noof	80	4925	7
110512	08:57	6	2.3.yore	81	5943	4
110512	08:57	6	2.5.grin	82	2657	8
110512	08:57	6	2.4.free	83	2229	9
110512	08:57	6	1.3.jofe	84	2905	5
110512	08:57	6	2.2.sick	85	5451	6
110512	08:57	6	2.4.nude	86	4664	5
110512	08:57	6	1.1.mur	87	3788	7
110512	08:57	6	2.3.star	88	4027	8
110512	08:57	6	2.6.slit	89	17824	1
110512	08:57	6	1.3.yome	90	9578	5
110512	08:57	6	1.2.zape	91	3995	4
110512	08:57	6	2.2.lids	92	4361	5
110512	08:57	6	1.1.bryg	93	4769	1
110512	08:57	6	2.4.body	94	4801	6
110512	08:57	6	1.5.syg	95	7023	2
110512	08:57	6	1.1.ryng	96	4742	2
110512	08:57	6	1.4.voom	97	4023	5
110512	08:57	6	2.2.lop	98	3717	8
110512	08:57	6	2.5.art	99	4126	9
110512	08:57	6	2.2.cake	100	3408	8
110512	08:57	6	2.1.but	101	4070	7
110512	08:57	6	2.2.sex	102	6810	9
110512	08:57	6	2.2.cell	103	4120	8
110512	08:57	6	1.3.mobe	104	4722	6
110512	08:57	6	2.5.arm	105	3748	7
110512	08:57	6	2.6.mask	106	3492	5
110512	08:57	6	1.1.ghun	107	5255	5
110512	08:57	6	2.6.evil	108	5428	6
110512	08:57	6	1.4.boog	109	5337	3
110512	08:57	6	1.5.vaf	110	7803	1
110512	08:57	6	1.2.leel	111	7250	3
110512	08:57	6	2.3.more	112	6912	7
110512	08:57	6	2.4.flag	113	3626	5
110512	08:57	6	1.2.zoke	114	5632	3
110512	08:57	6	2.5.bomb	115	4741	5
110512	08:57	6	2.5.fat	116	4919	7
110512	08:57	6	1.2.lalo	117	3713	9
110512	08:57	6	1.6.lim	118	5450	7
110512	08:57	6	2.4.lump	119	3527	5
110512	08:57	6	1.4.yeeb	120	4680	3
110512	10:20	6	speed	1	2685	42
110512	10:20	6	error	2	2225	88
110512	10:20	6	whichhand	3	6167	right
110512	10:20	6	2.5.fat	1	4267	2
110512	10:20	6	1.3.yave	2	5086	5
110512	10:20	6	1.5.yeb	3	2738	5
110512	10:20	6	1.5.vaf	4	6698	5
110512	10:20	6	1.1.bryg	5	3118	5
110512	10:20	6	1.4.foob	6	847	5
110512	10:20	6	2.4.lump	7	2674	5
110512	10:20	6	1.6.joi	8	1486	5
110512	10:20	6	2.2.cell	9	6456	7
110512	10:20	6	2.5.bus	10	2301	8
110512	10:20	6	1.4.noof	11	1975	5
110512	10:20	6	1.3.jofe	12	1542	5
110512	10:20	6	2.3.hate	13	4358	2
110512	10:20	6	1.6.zote	14	902	5
110512	10:20	6	2.5.unit	15	1544	7
110512	10:20	6	2.1.fur	16	1456	8
110512	10:20	6	2.2.leap	17	1323	8
110512	10:20	6	2.3.more	18	1372	8
110512	10:20	6	2.4.body	19	1283	8
110512	10:20	6	2.1.rug	20	989	8
110512	10:20	6	1.3.anay	21	1475	5
110512	10:20	6	2.4.tidy	22	1846	8
110512	10:20	6	1.5.jaj	23	1361	5
110512	10:20	6	2.4.part	24	1545	8
110512	10:20	6	2.2.cake	25	2120	9
110512	10:20	6	1.2.xad	26	1065	5
110512	10:20	6	1.6.vape	27	700	5
110512	10:20	6	1.1.ghun	28	734	5
110512	10:20	6	2.1.fun	29	1621	9
110512	10:20	6	2.5.art	30	1706	9
110512	10:20	6	1.6.celm	31	1636	5
110512	10:20	6	1.3.yane	32	632	5
110512	10:20	6	2.4.moon	33	1540	9
110512	10:20	6	2.6.mask	34	2644	7
110512	10:20	6	1.6.lim	35	1697	5
110512	10:20	6	1.3.vabe	36	706	5
110512	10:20	6	1.5.fuw	37	835	5
110512	10:20	6	2.5.non	38	3727	6
110512	10:20	6	1.5.zyr	39	1176	5
110512	10:20	6	1.4.teef	40	759	5
110512	10:20	6	1.4.yeeb	41	766	5
110512	10:20	6	2.6.dark	42	2909	7
110512	10:20	6	2.4.nude	43	1927	7
110512	10:20	6	1.4.toof	44	736	5
110512	10:20	6	2.6.pain	45	2200	7
110512	10:20	6	1.1.vun	46	1205	5
110512	10:20	6	1.6.dofe	47	1059	5
110512	10:20	6	1.1.ryng	48	718	5
110512	10:20	6	2.1.guy	49	2799	7
110512	10:20	6	2.5.boy	50	1445	7
110512	10:20	6	1.6.kabe	51	944	5
110512	10:20	6	2.5.arm	52	1440	7
110512	10:20	6	1.2.likk	53	909	5
110512	10:20	6	1.1.mur	54	638	5
110512	10:20	6	2.3.time	55	1778	8
110512	10:20	6	2.1.thy	56	913	5
110512	10:20	6	1.4.moob	57	2145	5
110512	10:20	6	1.2.zeed	58	761	5
110512	10:20	6	2.2.slid	59	2656	7
110512	10:20	6	1.6.nilo	60	1316	5
110512	10:20	6	1.4.voom	61	4789	5
110512	10:20	6	1.2.lale	62	820	5
110512	10:20	6	1.3.tove	63	1873	5
110512	10:20	6	2.2.lids	64	1500	7
110512	10:20	6	2.6.kin	65	2317	7
110512	10:20	6	2.4.free	66	2214	9
110512	10:20	6	2.4.foam	67	1939	7
110512	10:20	6	1.1.vuy	68	1116	5
110512	10:20	6	1.1.guf	69	653	5
110512	10:20	6	1.6.vook	70	784	5
110512	10:20	6	1.5.jufe	71	1022	5
110512	10:20	6	2.6.slit	72	7730	3
110512	10:20	6	2.3.yore	73	1076	5
110512	10:20	6	1.1.gub	74	1648	5
110512	10:20	6	2.4.dump	75	3419	3
110512	10:20	6	2.1.thus	76	1640	7
110512	10:20	6	2.3.hard	77	1413	7
110512	10:20	6	1.2.zoke	78	1426	5
110512	10:20	6	1.4.boog	79	542	5
110512	10:20	6	2.1.buy	80	1766	7
110512	10:20	6	1.2.lalo	81	741	5
110512	10:20	6	2.2.slow	82	3965	7
110512	10:20	6	2.2.sick	83	4005	4
110512	10:20	6	2.6.evil	84	1946	3
110512	10:20	6	2.6.cat	85	1355	7
110512	10:20	6	1.5.feg	86	1554	5
110512	10:20	6	1.5.syg	87	914	5
110512	10:20	6	2.1.but	88	1186	6
110512	10:20	6	2.6.scar	89	2096	6
110512	10:20	6	1.6.soog	90	690	5
110512	10:20	6	2.2.lop	91	700	5
110512	10:20	6	1.3.tage	92	797	5
110512	10:20	6	1.2.zake	93	1010	5
110512	10:20	6	2.5.bomb	94	1688	4
110512	10:20	6	1.1.nuv	95	722	5
110512	10:20	6	1.2.dax	96	1283	5
110512	10:20	6	2.4.flag	97	1557	7
110512	10:20	6	2.1.rut	98	2492	6
110512	10:20	6	2.3.obey	99	2167	7
110512	10:20	6	2.3.star	100	1726	9
110512	10:20	6	2.3.name	101	1655	7
110512	10:20	6	1.4.moof	102	1170	5
110512	10:20	6	1.4.yoof	103	641	5
110512	10:20	6	1.2.zape	104	1461	5
110512	10:20	6	2.2.sex	105	2944	6
110512	10:20	6	2.1.bug	106	1792	6
110512	10:20	6	2.5.bar	107	1391	6
110512	10:20	6	1.1.fryn	108	909	5
110512	10:20	6	1.3.mobe	109	646	5
110512	10:20	6	2.5.grin	110	1217	6
110512	10:20	6	1.5.tutk	111	742	5
110512	10:20	6	2.3.knot	112	1062	6
110512	10:20	6	1.2.leel	113	1553	5
110512	10:20	6	2.6.dog	114	1688	8
110512	10:20	6	2.6.milk	115	1323	7
110512	10:20	6	1.3.jafe	116	627	5
110512	10:20	6	1.5.bih	117	632	5
110512	10:20	6	2.2.dead	118	3188	3
110512	10:20	6	2.3.blue	119	1370	6
110512	10:20	6	1.3.yome	120	1090	5
110512	11:28	6	speed	1	1956	54
110512	11:28	6	error	2	2376	85
110512	11:28	6	whichhand	3	8165	Left
110512	11:28	6	1.3.tage	1	5929	6
110512	11:28	6	2.3.obey	2	4291	6
110512	11:28	6	1.5.fuw	3	3414	4
110512	11:28	6	1.1.guf	4	4460	3
110512	11:28	6	1.5.jufe	5	5952	6
110512	11:28	6	1.4.noof	6	2185	7
110512	11:28	6	2.5.non	7	3919	4
110512	11:28	6	1.4.moof	8	1681	7
110512	11:28	6	2.1.fur	9	1859	7
110512	11:28	6	1.3.yave	10	3671	6
110512	11:28	6	2.3.knot	11	2002	4
110512	11:28	6	2.4.foam	12	2328	7
110512	11:28	6	1.1.gub	13	1401	7
110512	11:28	6	1.4.yoof	14	1270	7
110512	11:28	6	2.6.scar	15	1609	4
110512	11:28	6	2.4.lump	16	1678	2
110512	11:28	6	2.5.fat	17	1313	1
110512	11:28	6	1.6.kabe	18	3097	4
110512	11:28	6	2.2.dead	19	2324	2
110512	11:28	6	1.3.tove	20	2020	5
110512	11:28	6	1.4.moob	21	1737	6
110512	11:28	6	1.3.vabe	22	1690	4
110512	11:28	6	1.1.nuv	23	1076	4
110512	11:28	6	2.3.yore	24	1335	7
110512	11:28	6	2.1.guy	25	1615	8
110512	11:28	6	2.1.rut	26	1716	3
110512	11:28	6	1.5.syg	27	1813	2
110512	11:28	6	2.3.hate	28	2354	1
110512	11:28	6	1.4.boog	29	1424	7
110512	11:28	6	1.2.zeed	30	1582	5
110512	11:28	6	2.4.dump	31	1852	3
110512	11:28	6	1.4.yeeb	32	1192	7
110512	11:28	6	2.6.kin	33	1734	8
110512	11:28	6	2.4.nude	34	1542	6
110512	11:28	6	1.6.soog	35	1751	8
110512	11:28	6	1.1.ghun	36	2686	4
110512	11:28	6	1.4.foob	37	1293	6
110512	11:28	6	2.5.grin	38	1337	9
110512	11:28	6	2.2.leap	39	1674	7
110512	11:28	6	1.5.feg	40	1437	5
110512	11:28	6	2.5.art	41	1417	8
110512	11:28	6	2.6.evil	42	1846	3
110512	11:28	6	2.3.hard	43	1722	4
110512	11:28	6	2.2.sex	44	2883	6
110512	11:28	6	1.6.lim	45	1725	5
110512	11:28	6	2.4.flag	46	2750	8
110512	11:28	6	1.1.ryng	47	1350	6
110512	11:28	6	1.3.mobe	48	1614	4
110512	11:28	6	1.3.jafe	49	1395	5
110512	11:28	6	2.2.slid	50	2113	3
110512	11:28	6	1.1.bryg	51	2274	5
110512	11:28	6	1.6.vape	52	4621	5
110512	11:28	6	2.4.tidy	53	2435	6
110512	11:28	6	1.5.vaf	54	2143	3
110512	11:28	6	1.4.teef	55	2232	3
110512	11:28	6	1.4.toof	56	2276	7
110512	11:28	6	1.4.voom	57	2223	6
110512	11:28	6	2.6.cat	58	1516	7
110512	11:28	6	2.1.fun	59	1908	9
110512	11:28	6	2.1.rug	60	1567	7
110512	11:28	6	2.5.bus	61	1493	7
110512	11:28	6	1.3.jofe	62	2392	5
110512	11:28	6	1.2.leel	63	2038	7
110512	11:28	6	2.6.dog	64	1499	9
110512	11:28	6	1.3.anay	65	2412	4
110512	11:28	6	1.2.zoke	66	1681	6
110512	11:28	6	2.1.but	67	5843	4
110512	11:28	6	1.5.zyr	68	3496	2
110512	11:28	6	2.4.body	69	4331	6
110512	11:28	6	2.1.bug	70	2436	3
110512	11:28	6	1.6.joi	71	3688	7
110512	11:28	6	1.2.lalo	72	1715	6
110512	11:28	6	2.6.mask	73	1756	6
110512	11:28	6	2.4.free	74	2452	8
110512	11:28	6	1.1.vuy	75	1504	4
110512	11:28	6	1.2.dax	76	2153	4
110512	11:28	6	1.3.yome	77	3033	5
110512	11:28	6	2.2.sick	78	1733	1
110512	11:28	6	2.3.time	79	1590	3
110512	11:28	6	2.5.bomb	80	1588	3
110512	11:28	6	2.1.thy	81	2978	3
110512	11:28	6	2.6.pain	82	1329	2
110512	11:28	6	1.6.celm	83	1865	5
110512	11:28	6	2.4.part	84	1364	6
110512	11:28	6	2.6.dark	85	3595	6
110512	11:28	6	1.5.tutk	86	1433	5
110512	11:28	6	2.1.thus	87	2693	4
110512	11:28	6	2.4.moon	88	1664	7
110512	11:28	6	1.3.yane	89	1867	7
110512	11:28	6	1.2.zake	90	1846	4
110512	11:28	6	2.5.boy	91	1761	8
110512	11:28	6	2.2.cell	92	2129	6
110512	11:28	6	2.2.cake	93	3345	7
110512	11:28	6	1.2.lale	94	1793	6
110512	11:28	6	1.6.vook	95	1407	7
110512	11:28	6	2.1.buy	96	2597	8
110512	11:28	6	2.5.unit	97	1419	7
110512	11:28	6	2.3.star	98	1248	8
110512	11:28	6	2.6.slit	99	4019	6
110512	11:28	6	1.6.nilo	100	2329	4
110512	11:28	6	1.1.mur	101	1633	5
110512	11:28	6	1.1.vun	102	998	5
110512	11:28	6	1.6.dofe	103	1203	6
110512	11:28	6	2.2.lids	104	2704	5
110512	11:28	6	2.2.lop	105	2266	4
110512	11:28	6	1.6.zote	106	1133	4
110512	11:28	6	1.2.xad	107	1277	5
110512	11:28	6	2.5.arm	108	1288	6
110512	11:28	6	1.5.jaj	109	1458	4
110512	11:28	6	2.3.more	110	1438	7
110512	11:28	6	1.2.zape	111	1130	6
110512	11:28	6	2.5.bar	112	2330	6
110512	11:28	6	1.1.fryn	113	1354	4
110512	11:28	6	2.3.name	114	1194	8
110512	11:28	6	2.3.blue	115	1392	7
110512	11:28	6	2.2.slow	116	1518	2
110512	11:28	6	2.6.milk	117	1959	5
110512	11:28	6	1.5.yeb	118	2502	6
110512	11:28	6	1.5.bih	119	4008	3
110512	11:28	6	1.2.likk	120	2279	3
110512	14:10	14814718259259	speed	1	3553	59
110512	14:10	14814718259259	error	2	2593	91
110512	14:10	14814718259259	whichhand	3	4616	right
110512	14:10	14814718259259	1.6.joi	1	8148	1
110512	14:10	14814718259259	2.2.leap	2	6230	6
110512	14:10	14814718259259	1.1.vun	3	2164	1
110512	14:10	14814718259259	1.3.yane	4	3803	2
110512	14:10	14814718259259	2.5.arm	5	524	2
110512	14:10	14814718259259	2.1.fur	6	1472	6
110512	14:10	14814718259259	2.5.non	7	2027	2
110512	14:10	14814718259259	2.3.star	8	2056	9
110512	14:10	14814718259259	2.6.dog	9	1076	9
110512	14:10	14814718259259	1.1.ryng	10	1990	1
110512	14:10	14814718259259	2.3.knot	11	2180	1
110512	14:10	14814718259259	2.6.pain	12	539	1
110512	14:10	14814718259259	2.6.dark	13	1619	3
110512	14:10	14814718259259	2.4.part	14	1184	3
110512	14:10	14814718259259	2.2.slid	15	2134	5
110512	14:10	14814718259259	2.1.rut	16	366	5
110512	14:10	14814718259259	1.3.anay	17	445	5
110512	14:10	14814718259259	2.1.thus	18	545	3
110512	14:10	14814718259259	2.1.thy	19	1161	7
110512	14:10	14814718259259	2.5.fat	20	1544	2
110512	14:10	14814718259259	2.1.guy	21	3344	8
110512	14:10	14814718259259	1.6.nilo	22	1753	3
110512	14:10	14814718259259	2.6.evil	23	1880	3
110512	14:10	14814718259259	1.6.kabe	24	2275	3
110512	14:10	14814718259259	2.5.bar	25	2918	7
110512	14:10	14814718259259	1.5.fuw	26	2367	3
110512	14:10	14814718259259	1.4.voom	27	1054	3
110512	14:10	14814718259259	2.4.free	28	2226	7
110512	14:10	14814718259259	1.2.leel	29	2463	3
110512	14:10	14814718259259	2.2.lop	30	5226	6
110512	14:10	14814718259259	1.5.bih	31	440	3
110512	14:10	14814718259259	2.3.blue	32	1660	9
110512	14:10	14814718259259	1.2.zeed	33	1871	1
110512	14:10	14814718259259	1.1.mur	34	1426	2
110512	14:10	14814718259259	2.3.hard	35	551	2
110512	14:10	14814718259259	1.5.tutk	36	2966	1
110512	14:10	14814718259259	2.5.grin	37	1766	4
110512	14:10	14814718259259	1.2.dax	38	901	4
110512	14:10	14814718259259	2.4.tidy	39	502	4
110512	14:10	14814718259259	1.1.bryg	40	367	4
110512	14:10	14814718259259	1.3.vabe	41	1741	3
110512	14:10	14814718259259	1.3.yome	42	1518	2
110512	14:10	14814718259259	1.3.yave	43	3071	2
110512	14:10	14814718259259	1.5.jaj	44	2338	6
110512	14:10	14814718259259	1.6.celm	45	3090	4
110512	14:10	14814718259259	1.4.teef	46	1637	4
110512	14:10	14814718259259	2.5.unit	47	1617	6
110512	14:10	14814718259259	1.6.vape	48	326	7
110512	14:10	14814718259259	1.4.foob	49	383	7
110512	14:10	14814718259259	1.2.zake	50	428	7
110512	14:10	14814718259259	2.6.mask	51	737	8
110512	14:10	14814718259259	1.2.likk	52	673	3
110512	14:10	14814718259259	2.2.slow	53	316	2
110512	14:10	14814718259259	1.3.mobe	54	268	1
110512	14:10	14814718259259	2.1.rug	55	790	4
110512	14:10	14814718259259	1.4.moof	56	292	3
110512	14:10	14814718259259	2.4.foam	57	294	6
110512	14:10	14814718259259	2.2.sex	58	640	2
110512	14:10	14814718259259	1.4.yeeb	59	1364	7
110512	14:10	14814718259259	2.3.hate	60	363	4
110512	14:10	14814718259259	1.6.dofe	61	337	7
110512	14:10	14814718259259	2.2.sick	62	425	3
110512	14:10	14814718259259	1.5.zyr	63	333	7
110512	14:10	14814718259259	2.3.name	64	549	1
110512	14:10	14814718259259	1.6.soog	65	1092	9
110512	14:10	14814718259259	1.1.nuv	66	1662	1
110512	14:10	14814718259259	1.4.boog	67	617	7
110512	14:10	14814718259259	2.1.bug	68	710	2
110512	14:10	14814718259259	2.2.lids	69	1455	9
110512	14:10	14814718259259	1.2.lalo	70	1235	3
110512	14:10	14814718259259	1.2.lale	71	1175	7
110512	14:10	14814718259259	1.5.jufe	72	309	5
110512	14:10	14814718259259	2.3.obey	73	295	4
110512	14:10	14814718259259	1.2.zape	74	1328	6
110512	14:10	14814718259259	2.2.cell	75	416	2
110512	14:10	14814718259259	1.1.gub	76	1061	8
110512	14:10	14814718259259	2.5.bomb	77	1224	1
110512	14:10	14814718259259	1.3.tage	78	853	7
110512	14:10	14814718259259	1.2.xad	79	432	6
110512	14:10	14814718259259	1.1.ghun	80	396	5
110512	14:10	14814718259259	1.6.lim	81	625	4
110512	14:10	14814718259259	1.1.vuy	82	1110	3
110512	14:10	14814718259259	1.5.vaf	83	1975	7
110512	14:10	14814718259259	1.4.yoof	84	790	6
110512	14:10	14814718259259	1.4.noof	85	3724	4
110512	14:10	14814718259259	1.3.jafe	86	1494	8
110512	14:10	14814718259259	2.4.flag	87	1280	3
110512	14:10	14814718259259	1.3.jofe	88	850	5
110512	14:10	14814718259259	2.4.moon	89	2989	9
110512	14:10	14814718259259	1.5.yeb	90	996	1
110512	14:10	14814718259259	2.1.fun	91	777	8
110512	14:10	14814718259259	2.4.dump	92	1280	3
110512	14:10	14814718259259	2.6.slit	93	1050	9
110512	14:10	14814718259259	1.6.zote	94	717	8
110512	14:10	14814718259259	2.4.body	95	342	7
110512	14:10	14814718259259	2.3.more	96	1134	6
110512	14:10	14814718259259	1.5.syg	97	414	5
110512	14:10	14814718259259	2.2.cake	98	291	4
110512	14:10	14814718259259	2.6.cat	99	1580	1
110512	14:10	14814718259259	1.6.vook	100	1674	1
110512	14:10	14814718259259	1.5.feg	101	2413	1
110512	14:10	14814718259259	2.5.boy	102	2275	1
110512	14:10	14814718259259	2.3.yore	103	4102	2
110512	14:10	14814718259259	2.5.art	104	1632	2
110512	14:10	14814718259259	2.4.nude	105	1460	2
110512	14:10	14814718259259	2.6.scar	106	3376	2
110512	14:10	14814718259259	2.4.lump	107	711	7
110512	14:10	14814718259259	1.3.tove	108	816	3
110512	14:10	14814718259259	2.1.buy	109	2037	2
110512	14:10	14814718259259	2.6.kin	110	401	6
110512	14:10	14814718259259	2.2.dead	111	622	3
110512	14:10	14814718259259	2.5.bus	112	643	4
110512	14:10	14814718259259	1.4.moob	113	623	5
110512	14:10	14814718259259	1.1.guf	114	468	6
110512	14:10	14814718259259	1.4.toof	115	766	7
110512	14:10	14814718259259	2.6.milk	116	565	8
110512	14:10	14814718259259	2.1.but	117	707	7
110512	14:10	14814718259259	1.1.fryn	118	525	6
110512	14:10	14814718259259	1.2.zoke	119	509	5
110512	14:10	14814718259259	2.3.time	120	1566	4
110612	11:41	4156478	speed	1	5461	50
110612	11:41	4156478	error	2	3579	98
110612	11:41	4156478	whichhand	3	10587	right
110612	11:41	4156478	1.4.yoof	1	6502	8
110612	11:41	4156478	2.5.bus	2	2953	6
110612	11:41	4156478	2.4.moon	3	2953	5
110612	11:41	4156478	2.5.bomb	4	2697	2
110612	11:41	4156478	1.6.nilo	5	3195	5
110612	11:41	4156478	1.5.jufe	6	2361	6
110612	11:41	4156478	2.5.grin	7	1633	7
110612	11:41	4156478	1.4.toof	8	1557	8
110612	11:41	4156478	1.3.tove	9	4436	8
110612	11:41	4156478	1.2.xad	10	3185	2
110612	11:41	4156478	1.3.mobe	11	3792	6
110612	11:41	4156478	2.6.kin	12	4415	4
110612	11:41	4156478	2.2.sex	13	1709	5
110612	11:41	4156478	2.2.slid	14	2926	6
110612	11:41	4156478	1.2.zake	15	3264	2
110612	11:41	4156478	1.5.jaj	16	1675	3
110612	11:41	4156478	1.2.lalo	17	1518	1
110612	11:41	4156478	1.6.lim	18	2935	4
110612	11:41	4156478	2.6.pain	19	1744	5
110612	11:41	4156478	2.4.body	20	3112	6
110612	11:41	4156478	1.1.vuy	21	3641	5
110612	11:41	4156478	2.1.thus	22	2110	5
110612	11:41	4156478	2.6.mask	23	2488	6
110612	11:41	4156478	2.3.time	24	1362	7
110612	11:41	4156478	1.6.soog	25	2305	2
110612	11:41	4156478	2.3.knot	26	1867	4
110612	11:41	4156478	1.3.yave	27	1638	5
110612	11:41	4156478	1.1.vun	28	1194	5
110612	11:41	4156478	1.2.zape	29	2096	3
110612	11:41	4156478	2.5.arm	30	1466	4
110612	11:41	4156478	2.4.nude	31	1293	5
110612	11:41	4156478	1.6.zote	32	1383	5
110612	11:41	4156478	1.5.tutk	33	1453	3
110612	11:41	4156478	1.1.guf	34	1001	4
110612	11:41	4156478	2.4.tidy	35	2462	6
110612	11:41	4156478	2.5.fat	36	1697	4
110612	11:41	4156478	2.2.lop	37	1203	5
110612	11:41	4156478	1.4.noof	38	1368	5
110612	11:41	4156478	2.2.lids	39	1607	5
110612	11:41	4156478	1.4.moob	40	1452	7
110612	11:41	4156478	1.2.lale	41	2392	4
110612	11:41	4156478	2.1.buy	42	1750	5
110612	11:41	4156478	2.4.free	43	1710	8
110612	11:41	4156478	1.5.vaf	44	2207	3
110612	11:41	4156478	1.4.moof	45	1109	4
110612	11:41	4156478	2.1.fur	46	3214	7
110612	11:41	4156478	1.5.syg	47	1636	3
110612	11:41	4156478	1.1.ryng	48	1120	3
110612	11:41	4156478	2.2.slow	49	2537	5
110612	11:41	4156478	2.1.bug	50	1441	5
110612	11:41	4156478	1.3.yome	51	1382	4
110612	11:41	4156478	2.3.hate	52	3148	2
110612	11:41	4156478	1.4.teef	53	2612	7
110612	11:41	4156478	2.3.hard	54	1417	4
110612	11:41	4156478	1.1.nuv	55	1430	2
110612	11:41	4156478	2.3.obey	56	2666	4
110612	11:41	4156478	2.2.leap	57	1485	5
110612	11:41	4156478	1.4.boog	58	1575	2
110612	11:41	4156478	2.3.more	59	4174	6
110612	11:41	4156478	2.1.rug	60	1678	5
110612	11:41	4156478	1.6.dofe	61	3825	7
110612	11:41	4156478	2.5.non	62	1846	5
110612	11:41	4156478	2.6.dog	63	3578	7
110612	11:41	4156478	2.3.star	64	1777	8
110612	11:41	4156478	2.6.milk	65	3936	6
110612	11:41	4156478	2.3.blue	66	2385	7
110612	11:41	4156478	1.4.foob	67	4007	8
110612	11:41	4156478	1.5.zyr	68	1582	2
110612	11:41	4156478	2.6.dark	69	1524	5
110612	11:41	4156478	1.1.fryn	70	1493	5
110612	11:41	4156478	1.5.feg	71	871	5
110612	11:41	4156478	1.6.vook	72	889	5
110612	11:41	4156478	1.3.jofe	73	596	5
110612	11:41	4156478	1.1.mur	74	1305	5
110612	11:41	4156478	1.1.bryg	75	1290	5
110612	11:41	4156478	2.1.rut	76	1188	5
110612	11:41	4156478	1.6.vape	77	1010	5
110612	11:41	4156478	1.2.leel	78	960	5
110612	11:41	4156478	1.2.likk	79	1087	5
110612	11:41	4156478	1.1.gub	80	1257	5
110612	11:41	4156478	2.2.dead	81	2844	2
110612	11:41	4156478	1.5.bih	82	2264	5
110612	11:41	4156478	2.6.slit	83	1819	5
110612	11:41	4156478	2.5.art	84	5248	9
110612	11:41	4156478	2.2.sick	85	1565	2
110612	11:41	4156478	1.2.zeed	86	916	8
110612	11:41	4156478	1.3.vabe	87	6373	2
110612	11:41	4156478	1.3.tage	88	1293	4
110612	11:41	4156478	2.1.guy	89	3103	5
110612	11:41	4156478	2.3.name	90	1041	5
110612	11:41	4156478	2.4.foam	91	1141	5
110612	11:41	4156478	1.6.celm	92	1005	5
110612	11:41	4156478	1.3.anay	93	1115	5
110612	11:41	4156478	2.3.yore	94	1212	5
110612	11:41	4156478	2.1.thy	95	1752	5
110612	11:41	4156478	2.2.cake	96	1304	5
110612	11:41	4156478	1.5.fuw	97	3209	6
110612	11:41	4156478	1.2.zoke	98	2535	5
110612	11:41	4156478	1.5.yeb	99	776	5
110612	11:41	4156478	2.6.cat	100	1614	4
110612	11:41	4156478	2.4.dump	101	3859	5
110612	11:41	4156478	2.6.scar	102	1864	5
110612	11:41	4156478	1.6.joi	103	747	5
110612	11:41	4156478	1.6.kabe	104	1394	5
110612	11:41	4156478	1.2.dax	105	1352	5
110612	11:41	4156478	2.2.cell	106	2783	6
110612	11:41	4156478	1.3.yane	107	1150	5
110612	11:41	4156478	1.3.jafe	108	854	5
110612	11:41	4156478	2.6.evil	109	1041	5
110612	11:41	4156478	2.5.unit	110	933	5
110612	11:41	4156478	2.4.flag	111	965	5
110612	11:41	4156478	2.1.fun	112	1747	8
110612	11:41	4156478	2.4.part	113	979	5
110612	11:41	4156478	1.4.voom	114	745	5
110612	11:41	4156478	2.1.but	115	1425	5
110612	11:41	4156478	2.5.bar	116	2766	5
110612	11:41	4156478	2.5.boy	117	1981	5
110612	11:41	4156478	1.4.yeeb	118	1915	5
110612	11:41	4156478	2.4.lump	119	2644	5
110612	11:41	4156478	1.1.ghun	120	897	5
110612	12:00	8989	speed	1	3827	30
110612	12:00	8989	error	2	3760	100
110612	12:00	8989	whichhand	3	10589	Right
110612	12:00	8989	2.4.part	1	7181	5
110612	12:00	8989	2.5.non	2	2405	5
110612	12:00	8989	2.2.sick	3	2043	1
110612	12:00	8989	1.5.zyr	4	1655	1
110612	12:00	8989	2.4.dump	5	1019	1
110612	12:00	8989	2.4.body	6	1216	5
110612	12:00	8989	2.1.rut	7	1316	3
110612	12:00	8989	2.2.cell	8	5837	5
110612	12:00	8989	2.1.thus	9	3347	4
110612	12:00	8989	1.1.ryng	10	3155	2
110612	12:00	8989	1.5.yeb	11	2211	3
110612	12:00	8989	2.3.knot	12	2264	4
110612	12:00	8989	2.1.bug	13	2116	2
110612	12:00	8989	1.2.leel	14	1537	1
110612	12:00	8989	1.3.jafe	15	4733	3
110612	12:00	8989	1.6.celm	16	2670	5
110612	12:00	8989	2.2.sex	17	3657	8
110612	12:00	8989	1.2.lalo	18	2758	4
110612	12:00	8989	1.6.joi	19	2957	7
110612	12:00	8989	2.6.slit	20	4070	3
110612	12:00	8989	2.4.nude	21	3265	6
110612	12:00	8989	1.6.zote	22	2589	3
110612	12:00	8989	1.4.noof	23	3786	2
110612	12:00	8989	2.3.star	24	2530	6
110612	12:00	8989	1.6.vook	25	3163	2
110612	12:00	8989	1.4.moof	26	5050	3
110612	12:00	8989	1.1.ghun	27	3951	4
110612	12:00	8989	2.6.scar	28	2079	2
110612	12:00	8989	2.1.thy	29	2769	5
110612	12:00	8989	1.6.kabe	30	2361	5
110612	12:00	8989	2.1.fur	31	1425	5
110612	12:00	8989	1.5.fuw	32	3045	3
110612	12:00	8989	1.4.foob	33	1994	3
110612	12:00	8989	1.4.yeeb	34	2600	3
110612	12:00	8989	2.5.bar	35	1789	5
110612	12:00	8989	2.6.dark	36	2756	3
110612	12:00	8989	2.5.boy	37	1444	5
110612	12:00	8989	1.6.vape	38	1120	1
110612	12:00	8989	2.5.fat	39	1248	1
110612	12:00	8989	2.5.arm	40	1956	5
110612	12:00	8989	2.2.cake	41	2500	5
110612	12:00	8989	2.3.hate	42	1542	1
110612	12:00	8989	1.2.likk	43	2566	5
110612	12:00	8989	1.6.soog	44	5789	1
110612	12:00	8989	2.1.fun	45	2093	9
110612	12:00	8989	1.1.vun	46	34743	4
110612	12:00	8989	1.4.teef	47	4137	3
110612	12:00	8989	1.2.zake	48	2955	3
110612	12:00	8989	2.4.foam	49	1474	3
110612	12:00	8989	2.5.unit	50	1261	5
110612	12:00	8989	2.5.art	51	625	5
110612	12:00	8989	1.3.mobe	52	597	5
110612	12:00	8989	2.1.rug	53	586	5
110612	12:00	8989	2.2.lop	54	1080	1
110612	12:00	8989	1.2.zoke	55	1394	2
110612	12:00	8989	2.2.leap	56	961	5
110612	12:00	8989	2.2.slid	57	1800	3
110612	12:00	8989	2.1.buy	58	1189	5
110612	12:00	8989	1.4.yoof	59	931	4
110612	12:00	8989	1.3.tove	60	812	1
110612	12:00	8989	2.5.grin	61	929	5
110612	12:00	8989	1.3.yane	62	1361	1
110612	12:00	8989	1.3.yave	63	1472	3
110612	12:00	8989	2.3.name	64	1611	5
110612	12:00	8989	2.2.lids	65	3185	5
110612	12:00	8989	2.6.kin	66	1927	5
110612	12:00	8989	1.2.lale	67	1672	4
110612	12:00	8989	1.5.feg	68	1427	5
110612	12:00	8989	2.3.blue	69	2360	5
110612	12:00	8989	1.3.yome	70	816	5
110612	12:00	8989	1.1.bryg	71	2876	2
110612	12:00	8989	2.4.tidy	72	2280	9
110612	12:00	8989	2.1.guy	73	1266	5
110612	12:00	8989	2.5.bomb	74	1685	1
110612	12:00	8989	2.6.evil	75	959	1
110612	12:00	8989	1.1.vuy	76	3671	2
110612	12:00	8989	2.6.pain	77	1498	1
110612	12:00	8989	1.3.jofe	78	1812	5
110612	12:00	8989	2.6.milk	79	2145	9
110612	12:00	8989	1.6.lim	80	1832	5
110612	12:00	8989	1.4.boog	81	1820	8
110612	12:00	8989	1.5.jufe	82	873	4
110612	12:00	8989	1.3.vabe	83	860	2
110612	12:00	8989	1.5.jaj	84	687	5
110612	12:00	8989	1.1.guf	85	425	7
110612	12:00	8989	2.5.bus	86	1286	6
110612	12:00	8989	1.2.dax	87	704	4
110612	12:00	8989	1.1.gub	88	553	9
110612	12:00	8989	1.4.moob	89	1408	5
110612	12:00	8989	1.5.tutk	90	614	6
110612	12:00	8989	1.1.nuv	91	635	4
110612	12:00	8989	1.4.toof	92	934	2
110612	12:00	8989	2.3.hard	93	902	8
110612	12:00	8989	1.3.tage	94	1088	7
110612	12:00	8989	2.3.more	95	1962	9
110612	12:00	8989	1.2.zape	96	1673	4
110612	12:00	8989	1.6.dofe	97	1748	4
110612	12:00	8989	2.6.cat	98	1411	5
110612	12:00	8989	2.4.lump	99	1449	1
110612	12:00	8989	2.3.obey	100	1228	1
110612	12:00	8989	1.6.nilo	101	2241	5
110612	12:00	8989	2.2.dead	102	1549	1
110612	12:00	8989	1.3.anay	103	1757	5
110612	12:00	8989	1.5.vaf	104	860	5
110612	12:00	8989	2.6.dog	105	1656	9
110612	12:00	8989	1.1.mur	106	1090	5
110612	12:00	8989	2.4.free	107	1413	9
110612	12:00	8989	2.2.slow	108	1938	1
110612	12:00	8989	1.2.xad	109	1082	5
110612	12:00	8989	2.4.moon	110	1461	9
110612	12:00	8989	2.3.time	111	1088	2
110612	12:00	8989	2.1.but	112	1922	4
110612	12:00	8989	1.1.fryn	113	907	4
110612	12:00	8989	1.4.voom	114	788	5
110612	12:00	8989	1.5.syg	115	866	3
110612	12:00	8989	1.5.bih	116	1365	3
110612	12:00	8989	2.3.yore	117	628	1
110612	12:00	8989	2.6.mask	118	985	6
110612	12:00	8989	2.4.flag	119	2118	6
110612	12:00	8989	1.2.zeed	120	1911	7
110612	12:38	1564864569	speed	1	3833	43
110612	12:38	1564864569	error	2	3007	100
110612	12:38	1564864569	whichhand	3	24941	right
110612	12:38	1564864569	2.6.mask	1	8372	9
110612	12:38	1564864569	2.1.rug	2	13190	5
110612	12:38	1564864569	1.3.jofe	3	4736	6
110612	12:38	1564864569	1.1.bryg	4	2929	5
110612	12:38	1564864569	1.5.fuw	5	1874	5
110612	12:38	1564864569	1.3.mobe	6	2165	4
110612	12:38	1564864569	1.2.zake	7	2060	5
110612	12:38	1564864569	1.4.yoof	8	1936	5
110612	12:38	1564864569	1.1.ryng	9	15840	5
110612	12:38	1564864569	1.1.vun	10	1849	5
110612	12:38	1564864569	1.5.jufe	11	5485	5
110612	12:38	1564864569	2.6.evil	12	2056	1
110612	12:38	1564864569	2.2.sick	13	1764	1
110612	12:38	1564864569	2.2.dead	14	1083	1
110612	12:38	1564864569	1.5.bih	15	2845	5
110612	12:38	1564864569	2.1.rut	16	2353	3
110612	12:38	1564864569	2.3.obey	17	2912	5
110612	12:38	1564864569	2.5.art	18	2010	7
110612	12:38	1564864569	2.4.part	19	1623	6
110612	12:38	1564864569	1.5.vaf	20	2020	5
110612	12:38	1564864569	2.3.time	21	5857	5
110612	12:38	1564864569	1.3.vabe	22	4110	7
110612	12:38	1564864569	1.6.dofe	23	1289	5
110612	12:38	1564864569	1.4.toof	24	2115	5
110612	12:38	1564864569	2.2.slid	25	2932	6
110612	12:38	1564864569	2.5.unit	26	2900	6
110612	12:38	1564864569	2.4.nude	27	2270	8
110612	12:38	1564864569	2.5.fat	28	2706	1
110612	12:38	1564864569	1.6.vape	29	2035	5
110612	12:38	1564864569	2.3.hard	30	2856	7
110612	12:38	1564864569	1.4.teef	31	2740	4
110612	12:38	1564864569	2.6.kin	32	1908	9
110612	12:38	1564864569	2.1.thus	33	2462	5
110612	12:38	1564864569	2.2.cake	34	1705	6
110612	12:38	1564864569	2.5.arm	35	1731	5
110612	12:38	1564864569	1.1.ghun	36	2755	5
110612	12:38	1564864569	1.6.soog	37	1147	5
110612	12:38	1564864569	2.6.slit	38	4874	2
110612	12:38	1564864569	1.1.guf	39	1350	5
110612	12:38	1564864569	2.1.fun	40	4190	8
110612	12:38	1564864569	1.1.fryn	41	1245	5
110612	12:38	1564864569	2.6.dark	42	2625	6
110612	12:38	1564864569	1.4.moob	43	1990	5
110612	12:38	1564864569	2.3.star	44	2284	8
110612	12:38	1564864569	1.3.tage	45	1759	5
110612	12:38	1564864569	1.2.zeed	46	2998	5
110612	12:38	1564864569	1.6.lim	47	2788	5
110612	12:38	1564864569	1.2.xad	48	827	5
110612	12:38	1564864569	2.3.name	49	2776	5
110612	12:38	1564864569	1.5.syg	50	1687	5
110612	12:38	1564864569	2.1.bug	51	6825	5
110612	12:38	1564864569	1.3.jafe	52	1208	5
110612	12:38	1564864569	1.4.noof	53	661	5
110612	12:38	1564864569	2.3.more	54	6537	5
110612	12:38	1564864569	1.2.zoke	55	1802	5
110612	12:38	1564864569	2.5.non	56	2912	5
110612	12:38	1564864569	1.4.moof	57	1185	5
110612	12:38	1564864569	1.2.zape	58	823	5
110612	12:38	1564864569	2.2.slow	59	1900	4
110612	12:38	1564864569	2.5.bomb	60	1934	1
110612	12:38	1564864569	1.5.yeb	61	1606	5
110612	12:38	1564864569	1.2.leel	62	1163	5
110612	12:38	1564864569	2.4.free	63	1986	9
110612	12:38	1564864569	1.2.likk	64	3593	6
110612	12:38	1564864569	2.1.guy	65	2263	7
110612	12:38	1564864569	2.2.leap	66	2219	6
110612	12:38	1564864569	1.2.dax	67	1648	5
110612	12:38	1564864569	1.3.yome	68	2291	8
110612	12:38	1564864569	2.2.cell	69	2997	9
110612	12:38	1564864569	1.6.vook	70	1596	5
110612	12:38	1564864569	2.2.lop	71	1105	5
110612	12:38	1564864569	2.5.bar	72	2306	8
110612	12:38	1564864569	1.5.jaj	73	1164	5
110612	12:38	1564864569	1.3.tove	74	1643	5
110612	12:38	1564864569	1.3.anay	75	3775	5
110612	12:38	1564864569	2.5.bus	76	1135	5
110612	12:38	1564864569	1.6.zote	77	807	5
110612	12:38	1564864569	1.6.celm	78	2804	5
110612	12:38	1564864569	1.1.mur	79	2386	5
110612	12:38	1564864569	1.1.gub	80	2961	5
110612	12:38	1564864569	1.6.nilo	81	1369	5
110612	12:38	1564864569	2.4.dump	82	2439	4
110612	12:38	1564864569	2.5.grin	83	3484	7
110612	12:38	1564864569	2.2.sex	84	1679	9
110612	12:38	1564864569	2.4.lump	85	3969	3
110612	12:38	1564864569	2.4.foam	86	1456	4
110612	12:38	1564864569	2.6.dog	87	8380	8
110612	12:38	1564864569	1.3.yane	88	1412	5
110612	12:38	1564864569	1.3.yave	89	993	5
110612	12:38	1564864569	1.1.vuy	90	927	5
110612	12:38	1564864569	2.4.moon	91	1848	7
110612	12:38	1564864569	2.3.hate	92	1420	1
110612	12:38	1564864569	2.1.buy	93	2816	6
110612	12:38	1564864569	2.5.boy	94	5750	7
110612	12:38	1564864569	2.6.pain	95	2151	2
110612	12:38	1564864569	2.4.flag	96	4878	9
110612	12:38	1564864569	2.1.but	97	1794	5
110612	12:38	1564864569	1.6.kabe	98	928	5
110612	12:38	1564864569	1.5.tutk	99	729	5
110612	12:38	1564864569	2.6.scar	100	2617	3
110612	12:38	1564864569	2.3.yore	101	2094	5
110612	12:38	1564864569	1.4.boog	102	1281	5
110612	12:38	1564864569	1.6.joi	103	747	5
110612	12:38	1564864569	1.1.nuv	104	666	5
110612	12:38	1564864569	2.3.knot	105	1717	4
110612	12:38	1564864569	2.4.body	106	1262	6
110612	12:38	1564864569	1.2.lale	107	1073	5
110612	12:38	1564864569	1.2.lalo	108	3316	5
110612	12:38	1564864569	1.5.zyr	109	1021	5
110612	12:38	1564864569	1.4.voom	110	2034	5
110612	12:38	1564864569	2.1.fur	111	1478	5
110612	12:38	1564864569	1.4.foob	112	697	5
110612	12:38	1564864569	1.4.yeeb	113	634	5
110612	12:38	1564864569	2.6.milk	114	2207	8
110612	12:38	1564864569	2.4.tidy	115	1884	9
110612	12:38	1564864569	2.2.lids	116	2046	6
110612	12:38	1564864569	2.3.blue	117	2658	6
110612	12:38	1564864569	2.1.thy	118	1558	5
110612	12:38	1564864569	1.5.feg	119	693	5
110612	12:38	1564864569	2.6.cat	120	2183	8
110612	12:57	169456	speed	1	2919	43
110612	12:57	169456	error	2	4768	97
110612	12:57	169456	whichhand	3	6552	Left
110612	12:57	169456	1.5.yeb	1	3771	6
110612	12:57	169456	1.3.yome	2	1634	5
110612	12:57	169456	2.1.buy	3	1950	7
110612	12:57	169456	2.4.free	4	1534	9
110612	12:57	169456	2.5.bar	5	1694	7
110612	12:57	169456	1.4.boog	6	3040	4
110612	12:57	169456	2.1.but	7	1197	4
110612	12:57	169456	1.2.zake	8	1315	5
110612	12:57	169456	2.2.slid	9	1908	6
110612	12:57	169456	1.6.nilo	10	1733	7
110612	12:57	169456	1.4.moof	11	1365	7
110612	12:57	169456	1.4.voom	12	1380	6
110612	12:57	169456	1.5.vaf	13	1491	5
110612	12:57	169456	2.3.blue	14	1324	7
110612	12:57	169456	1.5.jaj	15	1685	8
110612	12:57	169456	2.5.unit	16	1175	5
110612	12:57	169456	2.6.pain	17	2414	2
110612	12:57	169456	1.1.vuy	18	1387	3
110612	12:57	169456	2.2.leap	19	1145	5
110612	12:57	169456	1.4.teef	20	1945	4
110612	12:57	169456	1.4.foob	21	1936	5
110612	12:57	169456	1.2.leel	22	2057	4
110612	12:57	169456	2.5.bus	23	1381	6
110612	12:57	169456	1.2.lalo	24	1771	6
110612	12:57	169456	1.5.feg	25	2826	1
110612	12:57	169456	1.2.zeed	26	1159	4
110612	12:57	169456	2.6.milk	27	1350	6
110612	12:57	169456	2.2.sex	28	1606	6
110612	12:57	169456	2.5.grin	29	1515	7
110612	12:57	169456	2.1.guy	30	1708	8
110612	12:57	169456	2.6.slit	31	1214	6
110612	12:57	169456	2.3.star	32	1539	8
110612	12:57	169456	1.4.noof	33	891	6
110612	12:57	169456	2.6.cat	34	1661	8
110612	12:57	169456	1.3.tage	35	984	5
110612	12:57	169456	1.3.jofe	36	974	6
110612	12:57	169456	2.1.thus	37	1605	4
110612	12:57	169456	1.6.kabe	38	1322	4
110612	12:57	169456	1.2.dax	39	1739	3
110612	12:57	169456	2.4.nude	40	2396	6
110612	12:57	169456	2.6.mask	41	1977	5
110612	12:57	169456	2.1.rug	42	1328	4
110612	12:57	169456	1.6.lim	43	1216	3
110612	12:57	169456	1.1.mur	44	1181	4
110612	12:57	169456	2.4.moon	45	1379	7
110612	12:57	169456	1.5.fuw	46	1146	6
110612	12:57	169456	1.4.yoof	47	1385	7
110612	12:57	169456	2.2.cell	48	1391	7
110612	12:57	169456	2.3.knot	49	2373	4
110612	12:57	169456	1.4.moob	50	836	5
110612	12:57	169456	1.1.bryg	51	1824	3
110612	12:57	169456	2.1.bug	52	3269	3
110612	12:57	169456	2.1.fur	53	1873	4
110612	12:57	169456	2.4.body	54	1363	6
110612	12:57	169456	1.3.tove	55	1435	5
110612	12:57	169456	2.3.name	56	1390	8
110612	12:57	169456	1.3.vabe	57	1189	6
110612	12:57	169456	2.6.dark	58	1283	8
110612	12:57	169456	1.5.tutk	59	1757	4
110612	12:57	169456	1.6.soog	60	1412	5
110612	12:57	169456	2.2.lop	61	1088	6
110612	12:57	169456	2.4.lump	62	1163	6
110612	12:57	169456	1.6.vape	63	1610	4
110612	12:57	169456	1.6.joi	64	2175	8
110612	12:57	169456	1.1.vun	65	2423	6
110612	12:57	169456	1.3.anay	66	1940	6
110612	12:57	169456	1.5.syg	67	2084	3
110612	12:57	169456	2.5.boy	68	2054	8
110612	12:57	169456	1.2.xad	69	1986	7
110612	12:57	169456	2.1.fun	70	1672	9
110612	12:57	169456	1.4.toof	71	1459	6
110612	12:57	169456	1.1.ryng	72	1447	4
110612	12:57	169456	2.3.hate	73	3715	2
110612	12:57	169456	2.2.slow	74	1340	2
110612	12:57	169456	1.3.yave	75	1076	3
110612	12:57	169456	1.6.zote	76	1471	5
110612	12:57	169456	1.1.guf	77	1457	6
110612	12:57	169456	2.4.part	78	1005	7
110612	12:57	169456	2.4.dump	79	2170	2
110612	12:57	169456	2.4.tidy	80	2058	8
110612	12:57	169456	2.2.lids	81	1565	8
110612	12:57	169456	2.3.hard	82	1348	8
110612	12:57	169456	1.2.lale	83	980	8
110612	12:57	169456	2.2.dead	84	1914	9
110612	12:57	169456	2.3.yore	85	2275	9
110612	12:57	169456	2.1.thy	86	1653	5
110612	12:57	169456	1.6.vook	87	1185	6
110612	12:57	169456	2.6.evil	88	2847	2
110612	12:57	169456	1.1.fryn	89	2067	7
110612	12:57	169456	1.4.yeeb	90	1382	5
110612	12:57	169456	1.3.yane	91	1220	5
110612	12:57	169456	2.3.time	92	1257	8
110612	12:57	169456	1.2.zoke	93	1285	9
110612	12:57	169456	2.5.fat	94	2431	1
110612	12:57	169456	1.1.gub	95	2011	3
110612	12:57	169456	1.5.jufe	96	1505	3
110612	12:57	169456	2.2.sick	97	1739	1
110612	12:57	169456	2.3.more	98	1795	6
110612	12:57	169456	1.1.nuv	99	2169	7
110612	12:57	169456	1.2.likk	100	1208	7
110612	12:57	169456	2.5.non	101	2014	5
110612	12:57	169456	1.3.mobe	102	1242	5
110612	12:57	169456	2.5.arm	103	1791	7
110612	12:57	169456	2.6.scar	104	2837	2
110612	12:57	169456	2.1.rut	105	1378	2
110612	12:57	169456	2.4.flag	106	2192	6
110612	12:57	169456	2.6.kin	107	1559	9
110612	12:57	169456	1.3.jafe	108	1990	5
110612	12:57	169456	1.5.zyr	109	2901	4
110612	12:57	169456	1.6.celm	110	1478	5
110612	12:57	169456	2.5.art	111	1345	9
110612	12:57	169456	2.5.bomb	112	2593	1
110612	12:57	169456	1.2.zape	113	2471	4
110612	12:57	169456	1.5.bih	114	1890	3
110612	12:57	169456	2.3.obey	115	2165	2
110612	12:57	169456	2.6.dog	116	1924	9
110612	12:57	169456	2.4.foam	117	1413	6
110612	12:57	169456	2.2.cake	118	1178	7
110612	12:57	169456	1.1.ghun	119	1608	3
110612	12:57	169456	1.6.dofe	120	1350	2
110712	09:26	6	speed	1	2805	58
110712	09:26	6	error	2	2195	79
110712	09:26	6	whichhand	3	10113	right
110712	09:26	6	2.1.thus	1	13031	1
110712	09:26	6	1.4.boog	2	8024	5
110712	09:26	6	1.1.vuy	3	2735	5
110712	09:26	6	2.2.slid	4	5335	4
110712	09:26	6	2.5.unit	5	1865	7
110712	09:26	6	2.5.bar	6	2332	5
110712	09:26	6	2.3.obey	7	3028	5
110712	09:26	6	1.2.zake	8	7201	5
110712	09:26	6	1.5.yeb	9	5280	6
110712	09:26	6	2.3.time	10	2508	6
110712	09:26	6	1.4.yeeb	11	2581	5
110712	09:26	6	2.2.cake	12	1572	8
110712	09:26	6	1.6.joi	13	2051	7
110712	09:26	6	2.3.blue	14	1455	7
110712	09:26	6	1.3.anay	15	3114	5
110712	09:26	6	1.2.dax	16	1595	5
110712	09:26	6	1.6.soog	17	1417	5
110712	09:26	6	2.3.hard	18	3110	4
110712	09:26	6	2.6.mask	19	1536	5
110712	09:26	6	2.6.pain	20	2856	2
110712	09:26	6	2.4.body	21	1628	7
110712	09:26	6	1.5.fuw	22	3161	5
110712	09:26	6	1.2.leel	23	2961	5
110712	09:26	6	1.6.lim	24	6001	6
110712	09:26	6	2.5.arm	25	1840	6
110712	09:26	6	2.1.guy	26	1924	6
110712	09:26	6	1.6.zote	27	2989	5
110712	09:26	6	1.4.foob	28	2940	5
110712	09:26	6	2.2.cell	29	3004	6
110712	09:26	6	1.6.nilo	30	1450	5
110712	09:26	6	2.3.star	31	1950	7
110712	09:26	6	1.2.likk	32	837	5
110712	09:26	6	1.1.ryng	33	3562	5
110712	09:26	6	1.4.moof	34	1633	4
110712	09:26	6	2.6.slit	35	2413	4
110712	09:26	6	1.2.lalo	36	1794	5
110712	09:26	6	2.5.boy	37	1889	6
110712	09:26	6	1.1.vun	38	3547	4
110712	09:26	6	2.6.evil	39	1763	3
110712	09:26	6	2.6.dark	40	1073	3
110712	09:26	6	1.6.dofe	41	1700	5
110712	09:26	6	1.2.zape	42	1510	4
110712	09:26	6	2.2.sex	43	1520	6
110712	09:26	6	2.4.flag	44	1864	8
110712	09:26	6	2.3.yore	45	2396	5
110712	09:26	6	2.2.leap	46	2009	7
110712	09:26	6	2.5.non	47	2711	3
110712	09:26	6	1.5.bih	48	1224	5
110712	09:26	6	1.5.jufe	49	2245	5
110712	09:26	6	1.2.zeed	50	3801	5
110712	09:26	6	2.2.sick	51	1774	2
110712	09:26	6	2.6.scar	52	2934	6
110712	09:26	6	2.4.lump	53	2591	2
110712	09:26	6	2.1.fun	54	1829	9
110712	09:26	6	1.5.jaj	55	2217	6
110712	09:26	6	2.3.hate	56	2149	1
110712	09:26	6	2.5.grin	57	1654	7
110712	09:26	6	2.2.slow	58	1082	4
110712	09:26	6	2.4.tidy	59	4188	5
110712	09:26	6	2.4.dump	60	1587	3
110712	09:26	6	1.5.syg	61	1761	5
110712	09:26	6	1.3.yane	62	3473	6
110712	09:26	6	2.2.lop	63	996	5
110712	09:26	6	1.5.tutk	64	1682	5
110712	09:26	6	2.1.but	65	2596	4
110712	09:26	6	1.4.teef	66	2114	5
110712	09:26	6	1.5.zyr	67	907	5
110712	09:26	6	1.6.kabe	68	1828	6
110712	09:26	6	2.5.bomb	69	1913	3
110712	09:26	6	2.4.foam	70	1626	6
110712	09:26	6	1.5.feg	71	4374	3
110712	09:26	6	1.3.yome	72	2758	5
110712	09:26	6	2.2.dead	73	1790	4
110712	09:26	6	1.1.bryg	74	1868	5
110712	09:26	6	1.1.fryn	75	1959	6
110712	09:26	6	1.3.jofe	76	1431	6
110712	09:26	6	1.1.gub	77	1251	5
110712	09:26	6	2.1.fur	78	1262	6
110712	09:26	6	2.1.bug	79	1841	6
110712	09:26	6	1.6.vape	80	1813	4
110712	09:26	6	1.4.toof	81	970	5
110712	09:26	6	2.5.fat	82	1929	2
110712	09:26	6	1.1.nuv	83	1121	5
110712	09:26	6	2.6.dog	84	1690	9
110712	09:26	6	2.4.moon	85	1316	6
110712	09:26	6	2.1.rut	86	1773	9
110712	09:26	6	1.6.celm	87	1540	5
110712	09:26	6	2.4.nude	88	1372	6
110712	09:26	6	2.4.free	89	1323	7
110712	09:26	6	2.3.more	90	1660	7
110712	09:26	6	1.3.vabe	91	1376	5
110712	09:26	6	1.3.yave	92	1526	6
110712	09:26	6	2.5.bus	93	1231	5
110712	09:26	6	2.6.milk	94	1323	6
110712	09:26	6	1.6.vook	95	1228	5
110712	09:26	6	1.3.jafe	96	1673	5
110712	09:26	6	2.2.lids	97	1892	5
110712	09:26	6	2.4.part	98	1950	4
110712	09:26	6	2.6.cat	99	1462	7
110712	09:26	6	2.1.buy	100	1209	6
110712	09:26	6	2.6.kin	101	1782	7
110712	09:26	6	1.3.tage	102	2116	6
110712	09:26	6	2.1.rug	103	1285	6
110712	09:26	6	1.3.tove	104	1287	6
110712	09:26	6	2.1.thy	105	1586	5
110712	09:26	6	2.5.art	106	1360	5
110712	09:26	6	2.3.knot	107	1791	6
110712	09:26	6	1.4.moob	108	2285	6
110712	09:26	6	1.5.vaf	109	1312	5
110712	09:26	6	1.1.ghun	110	2321	6
110712	09:26	6	2.3.name	111	1442	5
110712	09:26	6	1.4.yoof	112	1798	5
110712	09:26	6	1.2.xad	113	1267	5
110712	09:26	6	1.2.lale	114	1974	5
110712	09:26	6	1.1.mur	115	2541	5
110712	09:26	6	1.3.mobe	116	1694	5
110712	09:26	6	1.1.guf	117	2016	6
110712	09:26	6	1.4.noof	118	1317	5
110712	09:26	6	1.2.zoke	119	1430	6
110712	09:26	6	1.4.voom	120	2274	6
110712	11:27	456789	speed	1	2529	36
110712	11:27	456789	error	2	2626	94
110712	11:27	456789	whichhand	3	10688	right
110712	11:27	456789	1.1.vun	1	7581	5
110712	11:27	456789	1.4.boog	2	6909	5
110712	11:27	456789	2.5.grin	3	5465	7
110712	11:27	456789	1.1.ryng	4	6565	5
110712	11:27	456789	2.6.mask	5	3549	6
110712	11:27	456789	2.4.free	6	4789	7
110712	11:27	456789	1.4.yoof	7	3660	5
110712	11:27	456789	2.2.cake	8	4089	8
110712	11:27	456789	1.4.yeeb	9	2580	6
110712	11:27	456789	1.3.anay	10	1947	5
110712	11:27	456789	2.3.knot	11	6218	5
110712	11:27	456789	2.6.milk	12	1569	6
110712	11:27	456789	2.1.thus	13	2799	6
110712	11:27	456789	1.6.vook	14	2909	5
110712	11:27	456789	2.2.slow	15	2279	4
110712	11:27	456789	2.1.guy	16	3010	5
110712	11:27	456789	1.6.zote	17	2552	5
110712	11:27	456789	2.2.lids	18	2384	4
110712	11:27	456789	1.3.jafe	19	2494	5
110712	11:27	456789	1.2.zape	20	4889	5
110712	11:27	456789	2.6.kin	21	2108	5
110712	11:27	456789	2.5.unit	22	3326	4
110712	11:27	456789	2.5.bus	23	3231	5
110712	11:27	456789	1.4.toof	24	4412	5
110712	11:27	456789	2.4.nude	25	4458	4
110712	11:27	456789	2.2.cell	26	2830	4
110712	11:27	456789	1.1.mur	27	1963	5
110712	11:27	456789	1.4.moob	28	1162	5
110712	11:27	456789	1.5.fuw	29	2913	5
110712	11:27	456789	1.4.foob	30	1138	5
110712	11:27	456789	2.1.rug	31	1322	5
110712	11:27	456789	2.2.sex	32	2435	5
110712	11:27	456789	1.1.guf	33	2063	5
110712	11:27	456789	2.3.star	34	1890	8
110712	11:27	456789	1.1.vuy	35	1061	5
110712	11:27	456789	2.6.cat	36	2144	7
110712	11:27	456789	1.5.jaj	37	912	5
110712	11:27	456789	2.5.bar	38	3129	6
110712	11:27	456789	2.4.moon	39	2153	6
110712	11:27	456789	2.3.name	40	2361	6
110712	11:27	456789	1.6.kabe	41	1169	5
110712	11:27	456789	1.3.yome	42	1696	5
110712	11:27	456789	1.2.lale	43	874	5
110712	11:27	456789	1.6.joi	44	884	5
110712	11:27	456789	1.2.zeed	45	766	5
110712	11:27	456789	1.3.vabe	46	805	5
110712	11:27	456789	2.5.art	47	2042	5
110712	11:27	456789	2.3.hate	48	3966	4
110712	11:27	456789	2.6.dark	49	2134	5
110712	11:27	456789	1.2.zake	50	718	5
110712	11:27	456789	1.3.tove	51	623	5
110712	11:27	456789	2.1.thy	52	3083	6
110712	11:27	456789	2.5.non	53	1662	6
110712	11:27	456789	2.4.part	54	1465	5
110712	11:27	456789	1.3.mobe	55	1204	5
110712	11:27	456789	1.5.bih	56	625	5
110712	11:27	456789	1.2.lalo	57	982	5
110712	11:27	456789	2.3.hard	58	2660	4
110712	11:27	456789	2.5.boy	59	1152	5
110712	11:27	456789	2.6.pain	60	2519	3
110712	11:27	456789	1.1.bryg	61	969	5
110712	11:27	456789	2.5.arm	62	1815	5
110712	11:27	456789	2.4.foam	63	3452	5
110712	11:27	456789	2.1.fur	64	1960	6
110712	11:27	456789	2.5.bomb	65	1808	3
110712	11:27	456789	1.1.nuv	66	773	5
110712	11:27	456789	1.5.jufe	67	860	5
110712	11:27	456789	2.1.bug	68	2567	4
110712	11:27	456789	1.2.xad	69	526	5
110712	11:27	456789	2.1.buy	70	2031	4
110712	11:27	456789	1.4.moof	71	659	5
110712	11:27	456789	1.6.vape	72	942	5
110712	11:27	456789	2.2.dead	73	4895	2
110712	11:27	456789	1.5.syg	74	873	5
110712	11:27	456789	2.6.dog	75	3316	5
110712	11:27	456789	2.6.slit	76	2317	4
110712	11:27	456789	1.6.dofe	77	1190	5
110712	11:27	456789	1.1.fryn	78	669	5
110712	11:27	456789	1.2.leel	79	527	5
110712	11:27	456789	2.6.evil	80	1936	4
110712	11:27	456789	2.2.lop	81	632	5
110712	11:27	456789	1.4.noof	82	643	5
110712	11:27	456789	2.4.dump	83	3040	3
110712	11:27	456789	1.4.voom	84	565	5
110712	11:27	456789	1.3.yave	85	2579	5
110712	11:27	456789	1.6.nilo	86	1105	5
110712	11:27	456789	1.3.tage	87	2691	5
110712	11:27	456789	1.1.ghun	88	718	5
110712	11:27	456789	1.1.gub	89	518	5
110712	11:27	456789	2.2.sick	90	1655	3
110712	11:27	456789	1.6.celm	91	722	5
110712	11:27	456789	2.1.but	92	2443	6
110712	11:27	456789	1.2.likk	93	599	5
110712	11:27	456789	2.3.time	94	1196	6
110712	11:27	456789	2.2.leap	95	1722	7
110712	11:27	456789	2.2.slid	96	2211	6
110712	11:27	456789	2.3.more	97	1664	5
110712	11:27	456789	1.3.yane	98	611	5
110712	11:27	456789	1.5.tutk	99	481	5
110712	11:27	456789	1.5.vaf	100	555	5
110712	11:27	456789	2.3.obey	101	1354	5
110712	11:27	456789	2.1.fun	102	1481	6
110712	11:27	456789	2.4.body	103	5891	4
110712	11:27	456789	1.6.soog	104	775	5
110712	11:27	456789	2.4.tidy	105	702	5
110712	11:27	456789	1.4.teef	106	575	5
110712	11:27	456789	2.4.lump	107	542	5
110712	11:27	456789	2.1.rut	108	885	5
110712	11:27	456789	1.5.yeb	109	567	5
110712	11:27	456789	2.5.fat	110	3166	2
110712	11:27	456789	1.2.dax	111	1309	5
110712	11:27	456789	1.5.zyr	112	631	5
110712	11:27	456789	2.3.blue	113	10026	7
110712	11:27	456789	1.2.zoke	114	746	5
110712	11:27	456789	2.6.scar	115	1777	4
110712	11:27	456789	1.3.jofe	116	896	5
110712	11:27	456789	2.3.yore	117	665	5
110712	11:27	456789	2.4.flag	118	2443	6
110712	11:27	456789	1.5.feg	119	776	5
110712	11:27	456789	1.6.lim	120	2407	5
110712	11:47	456	speed	1	2452	60
110712	11:47	456	error	2	2201	90
110712	11:47	456	whichhand	3	8239	right
110712	11:47	456	1.2.zape	1	16161	4
110712	11:47	456	1.2.leel	2	3925	5
110712	11:47	456	2.6.slit	3	3615	1
110712	11:47	456	1.4.yoof	4	5932	5
110712	11:47	456	2.2.lop	5	1710	5
110712	11:47	456	2.1.rut	6	1568	4
110712	11:47	456	1.2.lale	7	3287	5
110712	11:47	456	2.4.nude	8	3649	3
110712	11:47	456	2.3.knot	9	1902	4
110712	11:47	456	1.3.tove	10	1751	5
110712	11:47	456	1.3.anay	11	2887	5
110712	11:47	456	1.5.jaj	12	914	5
110712	11:47	456	2.5.fat	13	4578	3
110712	11:47	456	2.6.dog	14	1905	7
110712	11:47	456	1.3.jofe	15	1603	5
110712	11:47	456	1.6.lim	16	2072	5
110712	11:47	456	2.1.bug	17	2620	4
110712	11:47	456	1.3.jafe	18	1537	5
110712	11:47	456	1.6.nilo	19	1353	5
110712	11:47	456	2.3.hard	20	1912	3
110712	11:47	456	1.2.zeed	21	1705	5
110712	11:47	456	1.2.zake	22	2291	5
110712	11:47	456	1.4.voom	23	3301	5
110712	11:47	456	2.6.cat	24	1967	8
110712	11:47	456	1.5.feg	25	1622	5
110712	11:47	456	1.1.nuv	26	1475	5
110712	11:47	456	2.1.buy	27	3158	6
110712	11:47	456	2.1.but	28	2582	4
110712	11:47	456	1.5.vaf	29	1317	5
110712	11:47	456	1.1.mur	30	1765	5
110712	11:47	456	2.1.fun	31	1813	9
110712	11:47	456	2.4.part	32	5105	5
110712	11:47	456	1.1.bryg	33	1268	5
110712	11:47	456	2.6.scar	34	2047	3
110712	11:47	456	2.4.foam	35	2171	7
110712	11:47	456	2.4.body	36	3698	5
110712	11:47	456	1.3.vabe	37	1692	5
110712	11:47	456	2.2.sex	38	5590	8
110712	11:47	456	2.2.sick	39	1742	2
110712	11:47	456	1.3.tage	40	1414	5
110712	11:47	456	1.5.zyr	41	2075	5
110712	11:47	456	2.4.dump	42	3102	1
110712	11:47	456	2.5.grin	43	3784	7
110712	11:47	456	1.5.bih	44	1087	5
110712	11:47	456	1.5.fuw	45	905	5
110712	11:47	456	2.2.dead	46	1626	1
110712	11:47	456	2.2.slow	47	1999	2
110712	11:47	456	2.6.mask	48	3381	4
110712	11:47	456	1.6.vook	49	963	5
110712	11:47	456	1.6.joi	50	1410	5
110712	11:47	456	2.5.unit	51	3208	5
110712	11:47	456	1.4.foob	52	942	5
110712	11:47	456	2.5.arm	53	1870	5
110712	11:47	456	1.1.gub	54	3633	5
110712	11:47	456	1.1.fryn	55	773	5
110712	11:47	456	2.4.free	56	3820	9
110712	11:47	456	2.4.tidy	57	2250	7
110712	11:47	456	1.4.toof	58	974	5
110712	11:47	456	1.4.boog	59	1468	5
110712	11:47	456	2.6.evil	60	1727	1
110712	11:47	456	1.1.ryng	61	984	5
110712	11:47	456	1.3.yane	62	734	5
110712	11:47	456	2.3.more	63	4478	5
110712	11:47	456	1.2.likk	64	1057	5
110712	11:47	456	2.1.guy	65	3220	7
110712	11:47	456	2.5.non	66	2570	3
110712	11:47	456	2.4.flag	67	5026	6
110712	11:47	456	1.5.yeb	68	983	5
110712	11:47	456	2.6.pain	69	3205	2
110712	11:47	456	2.1.thus	70	3427	6
110712	11:47	456	2.3.time	71	1929	5
110712	11:47	456	2.3.yore	72	2945	5
110712	11:47	456	2.3.blue	73	4825	4
110712	11:47	456	1.6.soog	74	1159	5
110712	11:47	456	2.1.fur	75	3286	6
110712	11:47	456	2.2.lids	76	4313	4
110712	11:47	456	1.2.dax	77	1011	5
110712	11:47	456	2.2.slid	78	6376	5
110712	11:47	456	2.1.rug	79	3217	6
110712	11:47	456	2.6.kin	80	5622	6
110712	11:47	456	1.2.lalo	81	1988	5
110712	11:47	456	1.5.syg	82	1323	5
110712	11:47	456	2.1.thy	83	2683	6
110712	11:47	456	2.5.bar	84	3614	5
110712	11:47	456	2.4.moon	85	2843	7
110712	11:47	456	1.4.moof	86	1071	5
110712	11:47	456	1.6.zote	87	835	5
110712	11:47	456	1.3.mobe	88	6343	4
110712	11:47	456	2.2.cell	89	5528	3
110712	11:47	456	2.2.leap	90	1922	7
110712	11:47	456	1.6.kabe	91	2259	4
110712	11:47	456	2.2.cake	92	1695	8
110712	11:47	456	1.4.noof	93	3345	3
110712	11:47	456	1.1.guf	94	1817	4
110712	11:47	456	1.5.jufe	95	3054	5
110712	11:47	456	1.2.xad	96	2762	4
110712	11:47	456	1.4.yeeb	97	2681	7
110712	11:47	456	1.1.ghun	98	2476	3
110712	11:47	456	2.4.lump	99	1871	4
110712	11:47	456	1.5.tutk	100	2386	5
110712	11:47	456	2.5.art	101	2040	8
110712	11:47	456	1.4.teef	102	3045	6
110712	11:47	456	1.6.celm	103	2721	4
110712	11:47	456	1.1.vun	104	6194	6
110712	11:47	456	2.3.hate	105	1817	1
110712	11:47	456	1.4.moob	106	1630	4
110712	11:47	456	2.3.name	107	1794	5
110712	11:47	456	2.5.boy	108	2512	6
110712	11:47	456	2.5.bus	109	3570	4
110712	11:47	456	1.2.zoke	110	3873	6
110712	11:47	456	1.3.yave	111	2501	7
110712	11:47	456	2.6.milk	112	1879	6
110712	11:47	456	2.3.star	113	1513	8
110712	11:47	456	1.1.vuy	114	4370	5
110712	11:47	456	1.3.yome	115	7025	6
110712	11:47	456	2.6.dark	116	1656	2
110712	11:47	456	1.6.vape	117	3596	5
110712	11:47	456	2.5.bomb	118	1754	2
110712	11:47	456	2.3.obey	119	3770	4
110712	11:47	456	1.6.dofe	120	2721	6
110812	11:33	6262	speed	1	5387	52
110812	11:33	6262	error	2	2491	86
110812	11:33	6262	whichhand	3	7966	Right
110812	11:33	6262	2.3.obey	1	14692	5
110812	11:33	6262	2.2.slow	2	3578	6
110812	11:33	6262	2.1.thus	3	2849	5
110812	11:33	6262	2.1.fur	4	2981	7
110812	11:33	6262	2.3.knot	5	2092	6
110812	11:33	6262	2.2.cell	6	1310	5
110812	11:33	6262	2.2.dead	7	2392	1
110812	11:33	6262	2.4.tidy	8	4118	6
110812	11:33	6262	1.1.bryg	9	4520	4
110812	11:33	6262	2.2.leap	10	3097	4
110812	11:33	6262	1.1.mur	11	3356	5
110812	11:33	6262	1.2.lale	12	1492	5
110812	11:33	6262	2.1.thy	13	2302	5
110812	11:33	6262	2.6.milk	14	2296	8
110812	11:33	6262	1.5.fuw	15	1650	5
110812	11:33	6262	1.3.vabe	16	1125	5
110812	11:33	6262	1.5.jufe	17	806	5
110812	11:33	6262	1.4.moob	18	1179	5
110812	11:33	6262	1.4.boog	19	2017	5
110812	11:33	6262	2.4.free	20	2494	9
110812	11:33	6262	2.6.dark	21	2729	6
110812	11:33	6262	2.1.bug	22	2217	3
110812	11:33	6262	1.5.jaj	23	1151	5
110812	11:33	6262	1.2.zoke	24	854	5
110812	11:33	6262	2.6.dog	25	2977	9
110812	11:33	6262	2.6.cat	26	2496	1
110812	11:33	6262	2.4.lump	27	2738	3
110812	11:33	6262	2.6.mask	28	2179	4
110812	11:33	6262	2.1.rug	29	1617	6
110812	11:33	6262	2.5.bomb	30	3542	3
110812	11:33	6262	2.1.fun	31	1863	8
110812	11:33	6262	1.5.tutk	32	1226	5
110812	11:33	6262	1.6.lim	33	903	5
110812	11:33	6262	1.5.syg	34	816	5
110812	11:33	6262	1.3.tage	35	805	5
110812	11:33	6262	2.2.lids	36	2402	7
110812	11:33	6262	1.4.yeeb	37	832	5
110812	11:33	6262	1.2.zake	38	1084	5
110812	11:33	6262	1.2.xad	39	750	5
110812	11:33	6262	1.2.leel	40	941	5
110812	11:33	6262	1.1.nuv	41	645	5
110812	11:33	6262	1.3.yome	42	857	5
110812	11:33	6262	2.5.arm	43	3212	7
110812	11:33	6262	1.6.celm	44	818	5
110812	11:33	6262	2.2.sick	45	2214	2
110812	11:33	6262	2.3.hard	46	1811	4
110812	11:33	6262	1.4.foob	47	1065	5
110812	11:33	6262	1.3.jofe	48	1316	5
110812	11:33	6262	2.2.lop	49	773	5
110812	11:33	6262	1.6.nilo	50	803	5
110812	11:33	6262	1.6.kabe	51	752	5
110812	11:33	6262	1.6.zote	52	704	5
110812	11:33	6262	1.6.vook	53	721	5
110812	11:33	6262	2.4.nude	54	4009	3
110812	11:33	6262	2.5.bus	55	2032	6
110812	11:33	6262	2.3.yore	56	884	5
110812	11:33	6262	1.6.joi	57	702	5
110812	11:33	6262	1.1.vuy	58	599	5
110812	11:33	6262	1.4.moof	59	645	5
110812	11:33	6262	1.1.ryng	60	680	5
110812	11:33	6262	2.3.star	61	1866	8
110812	11:33	6262	2.1.guy	62	1677	6
110812	11:33	6262	1.4.yoof	63	888	5
110812	11:33	6262	1.4.toof	64	922	5
110812	11:33	6262	2.6.scar	65	2075	2
110812	11:33	6262	2.5.boy	66	1958	6
110812	11:33	6262	1.3.anay	67	1062	5
110812	11:33	6262	2.2.sex	68	3705	7
110812	11:33	6262	2.5.fat	69	2843	2
110812	11:33	6262	1.4.voom	70	872	5
110812	11:33	6262	1.2.zape	71	898	5
110812	11:33	6262	1.3.tove	72	732	5
110812	11:33	6262	2.5.art	73	3076	7
110812	11:33	6262	1.2.likk	74	1590	5
110812	11:33	6262	1.1.vun	75	637	5
110812	11:33	6262	2.1.but	76	1985	7
110812	11:33	6262	1.5.vaf	77	767	5
110812	11:33	6262	2.4.body	78	1870	7
110812	11:33	6262	1.2.zeed	79	1009	5
110812	11:33	6262	2.2.cake	80	2254	9
110812	11:33	6262	1.1.gub	81	786	5
110812	11:33	6262	2.5.non	82	848	5
110812	11:33	6262	1.3.yane	83	835	5
110812	11:33	6262	1.3.jafe	84	1255	4
110812	11:33	6262	2.3.more	85	1563	7
110812	11:33	6262	1.6.dofe	86	802	5
110812	11:33	6262	2.3.time	87	2311	8
110812	11:33	6262	1.4.teef	88	793	5
110812	11:33	6262	2.4.dump	89	2471	2
110812	11:33	6262	2.6.slit	90	2578	1
110812	11:33	6262	2.5.unit	91	1904	6
110812	11:33	6262	2.5.bar	92	2034	6
110812	11:33	6262	1.5.feg	93	878	5
110812	11:33	6262	2.6.pain	94	2969	1
110812	11:33	6262	2.6.evil	95	1928	1
110812	11:33	6262	1.5.bih	96	2809	3
110812	11:33	6262	1.1.guf	97	1103	5
110812	11:33	6262	1.4.noof	98	744	4
110812	11:33	6262	2.6.kin	99	1544	3
110812	11:33	6262	2.4.flag	100	3120	6
110812	11:33	6262	2.1.rut	101	2465	7
110812	11:33	6262	2.1.buy	102	1701	8
110812	11:33	6262	1.2.dax	103	1430	4
110812	11:33	6262	1.5.zyr	104	826	4
110812	11:33	6262	2.2.slid	105	1719	7
110812	11:33	6262	2.5.grin	106	1616	8
110812	11:33	6262	1.2.lalo	107	1093	5
110812	11:33	6262	1.3.yave	108	678	5
110812	11:33	6262	2.4.moon	109	1449	7
110812	11:33	6262	1.3.mobe	110	1108	5
110812	11:33	6262	2.4.part	111	1726	7
110812	11:33	6262	1.6.soog	112	959	5
110812	11:33	6262	1.1.fryn	113	1526	4
110812	11:33	6262	2.4.foam	114	1159	6
110812	11:33	6262	1.5.yeb	115	758	5
110812	11:33	6262	1.6.vape	116	1045	4
110812	11:33	6262	2.3.blue	117	1681	8
110812	11:33	6262	2.3.name	118	1691	8
110812	11:33	6262	1.1.ghun	119	1477	4
110812	11:33	6262	2.3.hate	120	3384	2
110812	12:31	21452185	speed	1	8880	42
110812	12:31	21452185	error	2	4864	95%
110812	12:31	21452185	whichhand	3	13394	Right
110812	12:31	21452185	2.1.fur	1	12138	6
110812	12:31	21452185	1.4.foob	2	3182	5
110812	12:31	21452185	1.1.nuv	3	3621	5
110812	12:31	21452185	1.1.gub	4	5754	4
110812	12:31	21452185	2.4.foam	5	3363	7
110812	12:31	21452185	1.6.dofe	6	2730	4
110812	12:31	21452185	2.4.dump	7	2651	3
110812	12:31	21452185	2.2.lids	8	3071	5
110812	12:31	21452185	2.5.boy	9	3451	5
110812	12:31	21452185	1.4.yoof	10	3215	6
110812	12:31	21452185	1.4.moob	11	3612	6
110812	12:31	21452185	1.6.zote	12	5082	3
110812	12:31	21452185	1.5.yeb	13	3381	5
110812	12:31	21452185	2.3.more	14	4652	6
110812	12:31	21452185	1.1.ghun	15	4848	4
110812	12:31	21452185	1.4.yeeb	16	3853	5
110812	12:31	21452185	1.6.soog	17	7233	5
110812	12:31	21452185	1.2.leel	18	4807	6
110812	12:31	21452185	1.6.lim	19	3902	5
110812	12:31	21452185	2.2.slid	20	5544	4
110812	12:31	21452185	1.3.yome	21	4289	7
110812	12:31	21452185	1.3.vabe	22	5108	4
110812	12:31	21452185	1.6.kabe	23	2839	4
110812	12:31	21452185	2.2.leap	24	5067	5
110812	12:31	21452185	2.6.mask	25	5247	5
110812	12:31	21452185	2.4.moon	26	5468	8
110812	12:31	21452185	2.6.evil	27	6088	3
110812	12:31	21452185	2.5.fat	28	4996	5
110812	12:31	21452185	2.3.knot	29	4571	6
110812	12:31	21452185	1.1.guf	30	4387	5
110812	12:31	21452185	1.4.noof	31	4418	6
110812	12:31	21452185	1.5.syg	32	4703	4
110812	12:31	21452185	1.6.joi	33	3674	5
110812	12:31	21452185	1.2.lalo	34	5006	4
110812	12:31	21452185	2.1.thus	35	3812	5
110812	12:31	21452185	2.5.arm	36	5242	5
110812	12:31	21452185	1.4.boog	37	5351	3
110812	12:31	21452185	1.3.yave	38	3536	6
110812	12:31	21452185	1.5.fuw	39	4105	5
110812	12:31	21452185	2.1.but	40	2419	5
110812	12:31	21452185	1.2.dax	41	3808	6
110812	12:31	21452185	1.4.moof	42	3591	5
110812	12:31	21452185	1.4.teef	43	6246	5
110812	12:31	21452185	1.5.bih	44	4123	4
110812	12:31	21452185	2.5.unit	45	7564	4
110812	12:31	21452185	2.5.bomb	46	3525	1
110812	12:31	21452185	2.4.nude	47	3367	7
110812	12:31	21452185	2.3.name	48	5022	7
110812	12:31	21452185	1.5.vaf	49	3420	5
110812	12:31	21452185	2.5.art	50	2810	9
110812	12:31	21452185	2.3.hard	51	3775	4
110812	12:31	21452185	1.2.zake	52	3791	5
110812	12:31	21452185	2.4.body	53	3190	5
110812	12:31	21452185	2.6.kin	54	3077	6
110812	12:31	21452185	2.4.free	55	2392	9
110812	12:31	21452185	1.4.toof	56	7623	5
110812	12:31	21452185	2.3.blue	57	5741	7
110812	12:31	21452185	1.2.lale	58	4095	6
110812	12:31	21452185	2.2.dead	59	2802	1
110812	12:31	21452185	2.5.bar	60	4167	5
110812	12:31	21452185	1.4.voom	61	3719	9
110812	12:31	21452185	1.1.ryng	62	2545	5
110812	12:31	21452185	2.2.lop	63	5705	5
110812	12:31	21452185	1.3.jafe	64	3739	5
110812	12:31	21452185	2.4.part	65	3844	5
110812	12:31	21452185	2.1.rut	66	2712	3
110812	12:31	21452185	1.6.vook	67	2874	5
110812	12:31	21452185	1.2.xad	68	2733	4
110812	12:31	21452185	2.3.obey	69	2110	6
110812	12:31	21452185	2.1.fun	70	1464	9
110812	12:31	21452185	2.3.hate	71	1330	1
110812	12:31	21452185	1.1.vuy	72	4850	5
110812	12:31	21452185	1.2.zeed	73	3575	5
110812	12:31	21452185	2.6.scar	74	3911	4
110812	12:31	21452185	2.4.lump	75	2825	4
110812	12:31	21452185	2.1.bug	76	4742	4
110812	12:31	21452185	2.6.dog	77	3960	7
110812	12:31	21452185	2.5.non	78	2856	5
110812	12:31	21452185	1.5.zyr	79	2364	5
110812	12:31	21452185	2.2.sick	80	2411	1
110812	12:31	21452185	2.4.tidy	81	1729	9
110812	12:31	21452185	2.5.grin	82	1673	9
110812	12:31	21452185	1.5.tutk	83	2700	5
110812	12:31	21452185	2.3.star	84	3918	7
110812	12:31	21452185	1.6.vape	85	2767	5
110812	12:31	21452185	1.2.likk	86	3943	5
110812	12:31	21452185	1.3.anay	87	6816	5
110812	12:31	21452185	1.5.jaj	88	4806	6
110812	12:31	21452185	1.6.nilo	89	3277	5
110812	12:31	21452185	1.3.tage	90	2808	5
110812	12:31	21452185	2.2.cell	91	2742	6
110812	12:31	21452185	1.3.mobe	92	2831	5
110812	12:31	21452185	1.1.vun	93	4715	5
110812	12:31	21452185	2.3.time	94	3525	6
110812	12:31	21452185	1.2.zape	95	1471	5
110812	12:31	21452185	2.1.buy	96	3394	6
110812	12:31	21452185	2.6.cat	97	2816	7
110812	12:31	21452185	1.1.mur	98	4149	5
110812	12:31	21452185	2.6.pain	99	1686	1
110812	12:31	21452185	2.2.slow	100	2344	4
110812	12:31	21452185	1.6.celm	101	3489	5
110812	12:31	21452185	1.3.jofe	102	3452	5
110812	12:31	21452185	1.1.bryg	103	3600	5
110812	12:31	21452185	1.3.tove	104	4126	6
110812	12:31	21452185	2.3.yore	105	6487	6
110812	12:31	21452185	2.1.rug	106	2492	6
110812	12:31	21452185	2.2.sex	107	3078	9
110812	12:31	21452185	2.6.dark	108	1761	1
110812	12:31	21452185	2.6.milk	109	2464	8
110812	12:31	21452185	2.1.guy	110	5052	5
110812	12:31	21452185	1.1.fryn	111	5032	5
110812	12:31	21452185	2.5.bus	112	2062	7
110812	12:31	21452185	2.1.thy	113	2385	5
110812	12:31	21452185	2.6.slit	114	2903	3
110812	12:31	21452185	1.5.feg	115	3129	5
110812	12:31	21452185	1.3.yane	116	2978	5
110812	12:31	21452185	1.2.zoke	117	3017	5
110812	12:31	21452185	2.2.cake	118	2486	7
110812	12:31	21452185	2.4.flag	119	3049	9
110812	12:31	21452185	1.5.jufe	120	2205	5
110812	13:33	31515282	speed	1	2457	41
110812	13:33	31515282	error	2	2965	95%
110812	13:33	31515282	whichhand	3	21260	Right
110812	13:33	31515282	2.2.dead	1	12107	5
110812	13:33	31515282	1.3.tage	2	5840	5
110812	13:33	31515282	1.4.teef	3	10309	5
110812	13:33	31515282	2.6.kin	4	4249	9
110812	13:33	31515282	2.5.boy	5	1614	8
110812	13:33	31515282	2.4.lump	6	4754	3
110812	13:33	31515282	2.6.cat	7	1531	9
110812	13:33	31515282	1.5.tutk	8	2835	5
110812	13:33	31515282	1.6.zote	9	2208	5
110812	13:33	31515282	2.4.nude	10	3054	2
110812	13:33	31515282	2.1.fun	11	1746	9
110812	13:33	31515282	1.4.voom	12	2545	8
110812	13:33	31515282	2.1.rut	13	2929	2
110812	13:33	31515282	2.2.slid	14	2058	8
110812	13:33	31515282	2.6.evil	15	1509	3
110812	13:33	31515282	2.2.sick	16	1671	3
110812	13:33	31515282	1.4.boog	17	1818	5
110812	13:33	31515282	2.3.more	18	2863	7
110812	13:33	31515282	1.2.leel	19	1602	5
110812	13:33	31515282	1.2.zeed	20	1488	5
110812	13:33	31515282	1.1.fryn	21	2138	5
110812	13:33	31515282	1.5.jaj	22	2963	5
110812	13:33	31515282	2.3.yore	23	2970	4
110812	13:33	31515282	1.6.kabe	24	2977	6
110812	13:33	31515282	2.2.lids	25	2192	6
110812	13:33	31515282	1.5.bih	26	2991	5
110812	13:33	31515282	1.6.vook	27	2470	5
110812	13:33	31515282	2.1.fur	28	3137	9
110812	13:33	31515282	2.3.time	29	2185	9
110812	13:33	31515282	1.3.jafe	30	1304	5
110812	13:33	31515282	2.6.scar	31	3849	5
110812	13:33	31515282	2.6.milk	32	1646	7
110812	13:33	31515282	1.4.noof	33	1153	5
110812	13:33	31515282	1.4.moob	34	1937	5
110812	13:33	31515282	2.4.part	35	2377	7
110812	13:33	31515282	2.6.dark	36	4632	4
110812	13:33	31515282	1.1.guf	37	2301	4
110812	13:33	31515282	2.1.bug	38	2711	5
110812	13:33	31515282	1.1.vuy	39	1489	5
110812	13:33	31515282	2.2.lop	40	1915	4
110812	13:33	31515282	2.1.rug	41	1780	7
110812	13:33	31515282	2.3.hard	42	5498	5
110812	13:33	31515282	1.2.dax	43	3077	5
110812	13:33	31515282	2.6.dog	44	1425	9
110812	13:33	31515282	1.2.zoke	45	2205	5
110812	13:33	31515282	2.3.hate	46	3699	3
110812	13:33	31515282	1.3.mobe	47	2965	5
110812	13:33	31515282	1.5.fuw	48	1644	4
110812	13:33	31515282	2.2.leap	49	3233	9
110812	13:33	31515282	2.5.non	50	5462	5
110812	13:33	31515282	1.4.moof	51	4905	5
110812	13:33	31515282	2.5.fat	52	2412	2
110812	13:33	31515282	1.4.toof	53	1609	5
110812	13:33	31515282	2.3.obey	54	1503	6
110812	13:33	31515282	2.2.cell	55	2384	6
110812	13:33	31515282	1.4.yoof	56	1903	5
110812	13:33	31515282	1.3.tove	57	897	5
110812	13:33	31515282	2.4.dump	58	1466	4
110812	13:33	31515282	1.6.celm	59	1165	5
110812	13:33	31515282	2.5.art	60	1379	9
110812	13:33	31515282	2.4.foam	61	1234	9
110812	13:33	31515282	2.2.cake	62	1478	9
110812	13:33	31515282	1.3.anay	63	1857	5
110812	13:33	31515282	2.6.mask	64	1812	8
110812	13:33	31515282	2.4.body	65	3369	7
110812	13:33	31515282	1.6.vape	66	1985	4
110812	13:33	31515282	1.4.yeeb	67	1415	5
110812	13:33	31515282	1.1.nuv	68	2556	5
110812	13:33	31515282	2.5.bus	69	1684	7
110812	13:33	31515282	2.3.knot	70	1494	6
110812	13:33	31515282	1.5.syg	71	2032	5
110812	13:33	31515282	2.3.star	72	1692	9
110812	13:33	31515282	1.5.feg	73	1415	5
110812	13:33	31515282	2.1.buy	74	1955	7
110812	13:33	31515282	1.2.zake	75	1219	4
110812	13:33	31515282	1.3.yome	76	1472	4
110812	13:33	31515282	1.1.ryng	77	1947	5
110812	13:33	31515282	1.5.jufe	78	3042	4
110812	13:33	31515282	2.5.bar	79	1799	7
110812	13:33	31515282	1.3.yane	80	1461	5
110812	13:33	31515282	1.2.lale	81	1040	4
110812	13:33	31515282	2.5.unit	82	2244	6
110812	13:33	31515282	2.1.guy	83	4465	8
110812	13:33	31515282	1.6.soog	84	2267	6
110812	13:33	31515282	1.6.nilo	85	1031	5
110812	13:33	31515282	2.5.arm	86	1955	7
110812	13:33	31515282	1.1.bryg	87	1019	5
110812	13:33	31515282	1.4.foob	88	4288	6
110812	13:33	31515282	2.6.pain	89	2795	1
110812	13:33	31515282	1.3.vabe	90	5513	3
110812	13:33	31515282	1.1.mur	91	1059	4
110812	13:33	31515282	1.5.zyr	92	1087	3
110812	13:33	31515282	1.6.dofe	93	1913	3
110812	13:33	31515282	1.3.yave	94	1754	4
110812	13:33	31515282	1.5.yeb	95	4033	5
110812	13:33	31515282	2.5.bomb	96	1558	3
110812	13:33	31515282	2.3.name	97	2438	9
110812	13:33	31515282	2.4.free	98	1418	9
110812	13:33	31515282	2.1.thy	99	2479	6
110812	13:33	31515282	1.1.ghun	100	1873	5
110812	13:33	31515282	2.1.but	101	1333	5
110812	13:33	31515282	2.4.moon	102	1813	9
110812	13:33	31515282	2.3.blue	103	872	9
110812	13:33	31515282	1.2.lalo	104	1500	5
110812	13:33	31515282	2.5.grin	105	1518	9
110812	13:33	31515282	1.3.jofe	106	1422	5
110812	13:33	31515282	2.2.slow	107	3355	5
110812	13:33	31515282	1.2.xad	108	1563	6
110812	13:33	31515282	2.6.slit	109	2834	5
110812	13:33	31515282	1.5.vaf	110	887	5
110812	13:33	31515282	1.1.vun	111	2657	4
110812	13:33	31515282	1.2.zape	112	3005	5
110812	13:33	31515282	1.6.lim	113	1643	7
110812	13:33	31515282	1.2.likk	114	2223	4
110812	13:33	31515282	2.1.thus	115	1444	6
110812	13:33	31515282	2.2.sex	116	3032	5
110812	13:33	31515282	2.4.flag	117	1389	7
110812	13:33	31515282	2.4.tidy	118	1563	8
110812	13:33	31515282	1.1.gub	119	1002	5
110812	13:33	31515282	1.6.joi	120	879	5
110812	13:56	31265154814	speed	1	2134	44
110812	13:56	31265154814	error	2	6780	90%
110812	13:56	31265154814	whichhand	3	24292	right
110812	13:56	31265154814	1.4.yoof	1	9603	4
110812	13:56	31265154814	1.1.guf	2	6900	2
110812	13:56	31265154814	2.4.flag	3	5367	7
110812	13:56	31265154814	2.2.slid	4	5911	5
110812	13:56	31265154814	2.6.kin	5	5065	6
110812	13:56	31265154814	2.2.sex	6	2661	5
110812	13:56	31265154814	1.2.zape	7	6128	8
110812	13:56	31265154814	1.2.zoke	8	3618	8
110812	13:56	31265154814	2.4.dump	9	4120	3
110812	13:56	31265154814	2.3.name	10	2194	5
110812	13:56	31265154814	2.5.unit	11	1848	5
110812	13:56	31265154814	1.1.mur	12	6251	9
110812	13:56	31265154814	2.3.hard	13	2713	5
110812	13:56	31265154814	1.5.vaf	14	3826	4
110812	13:56	31265154814	2.2.sick	15	4536	3
110812	13:56	31265154814	1.4.moof	16	5376	3
110812	13:56	31265154814	1.2.dax	17	4073	6
110812	13:56	31265154814	1.3.vabe	18	3612	4
110812	13:56	31265154814	2.6.mask	19	2466	8
110812	13:56	31265154814	2.5.grin	20	2253	6
110812	13:56	31265154814	1.1.vun	21	4825	7
110812	13:56	31265154814	1.6.vape	22	3887	2
110812	13:56	31265154814	1.3.anay	23	8586	3
110812	13:56	31265154814	2.1.thus	24	4866	5
110812	13:56	31265154814	1.2.lalo	25	3574	6
110812	13:56	31265154814	1.3.mobe	26	4478	3
110812	13:56	31265154814	1.1.vuy	27	4761	3
110812	13:56	31265154814	1.2.leel	28	2561	4
110812	13:56	31265154814	1.5.syg	29	4705	5
110812	13:56	31265154814	1.4.yeeb	30	5147	4
110812	13:56	31265154814	2.6.dog	31	2412	8
110812	13:56	31265154814	2.1.fur	32	2793	7
110812	13:56	31265154814	2.1.rug	33	5608	1
110812	13:56	31265154814	2.1.bug	34	3183	1
110812	13:56	31265154814	1.1.ryng	35	3677	3
110812	13:56	31265154814	1.6.zote	36	3016	5
110812	13:56	31265154814	2.3.star	37	1646	9
110812	13:56	31265154814	2.4.tidy	38	2970	5
110812	13:56	31265154814	1.6.soog	39	2881	3
110812	13:56	31265154814	2.2.slow	40	2700	5
110812	13:56	31265154814	2.4.moon	41	2678	7
110812	13:56	31265154814	1.4.noof	42	3593	4
110812	13:56	31265154814	1.3.yane	43	3024	4
110812	13:56	31265154814	2.2.cell	44	2685	7
110812	13:56	31265154814	2.4.part	45	2440	5
110812	13:56	31265154814	1.3.jofe	46	2772	4
110812	13:56	31265154814	2.4.body	47	4467	5
110812	13:56	31265154814	2.5.arm	48	1247	5
110812	13:56	31265154814	1.2.zake	49	3299	4
110812	13:56	31265154814	2.5.bomb	50	2349	8
110812	13:56	31265154814	1.6.celm	51	2749	3
110812	13:56	31265154814	1.6.lim	52	1732	5
110812	13:56	31265154814	1.1.fryn	53	4973	6
110812	13:56	31265154814	1.5.bih	54	1621	4
110812	13:56	31265154814	1.2.zeed	55	2442	8
110812	13:56	31265154814	1.5.zyr	56	1437	4
110812	13:56	31265154814	1.3.jafe	57	1866	3
110812	13:56	31265154814	2.3.hate	58	5229	5
110812	13:56	31265154814	2.1.buy	59	1827	9
110812	13:56	31265154814	2.5.boy	60	3096	5
110812	13:56	31265154814	1.5.fuw	61	2394	3
110812	13:56	31265154814	2.1.but	62	2896	3
110812	13:56	31265154814	1.4.toof	63	1938	4
110812	13:56	31265154814	2.1.rut	64	2722	1
110812	13:56	31265154814	2.6.pain	65	2116	2
110812	13:56	31265154814	1.5.feg	66	1797	4
110812	13:56	31265154814	2.1.thy	67	1610	5
110812	13:56	31265154814	2.3.knot	68	1496	4
110812	13:56	31265154814	2.5.bar	69	4921	7
110812	13:56	31265154814	2.2.leap	70	2771	8
110812	13:56	31265154814	2.3.yore	71	1243	4
110812	13:56	31265154814	1.4.boog	72	2199	9
110812	13:56	31265154814	2.2.dead	73	2188	1
110812	13:56	31265154814	2.4.lump	74	1483	5
110812	13:56	31265154814	1.5.jaj	75	1373	4
110812	13:56	31265154814	1.3.tove	76	2884	4
110812	13:56	31265154814	2.5.fat	77	2702	5
110812	13:56	31265154814	2.1.guy	78	1664	5
110812	13:56	31265154814	1.5.yeb	79	1403	4
110812	13:56	31265154814	2.2.cake	80	1817	9
110812	13:56	31265154814	1.4.teef	81	1222	4
110812	13:56	31265154814	2.4.nude	82	1243	5
110812	13:56	31265154814	2.6.dark	83	5342	5
110812	13:56	31265154814	1.6.nilo	84	5672	6
110812	13:56	31265154814	1.4.voom	85	1820	6
110812	13:56	31265154814	2.3.time	86	2329	7
110812	13:56	31265154814	1.6.dofe	87	1297	4
110812	13:56	31265154814	1.1.nuv	88	1059	4
110812	13:56	31265154814	1.3.tage	89	1343	3
110812	13:56	31265154814	1.3.yome	90	1271	3
110812	13:56	31265154814	2.5.bus	91	3593	1
110812	13:56	31265154814	1.5.jufe	92	1336	3
110812	13:56	31265154814	1.2.xad	93	3464	2
110812	13:56	31265154814	1.1.bryg	94	3180	2
110812	13:56	31265154814	2.1.fun	95	2099	7
110812	13:56	31265154814	2.4.foam	96	2044	6
110812	13:56	31265154814	1.5.tutk	97	2497	4
110812	13:56	31265154814	1.2.lale	98	987	4
110812	13:56	31265154814	1.6.kabe	99	641	3
110812	13:56	31265154814	1.2.likk	100	1660	2
110812	13:56	31265154814	2.6.slit	101	2808	3
110812	13:56	31265154814	1.6.vook	102	2758	4
110812	13:56	31265154814	2.2.lop	103	1134	4
110812	13:56	31265154814	2.5.art	104	2326	7
110812	13:56	31265154814	1.3.yave	105	2743	4
110812	13:56	31265154814	1.1.ghun	106	1544	3
110812	13:56	31265154814	2.2.lids	107	1720	7
110812	13:56	31265154814	2.6.milk	108	2113	9
110812	13:56	31265154814	2.6.cat	109	1298	9
110812	13:56	31265154814	2.4.free	110	1947	7
110812	13:56	31265154814	2.3.blue	111	1267	9
110812	13:56	31265154814	1.4.moob	112	2310	6
110812	13:56	31265154814	2.3.obey	113	1887	5
110812	13:56	31265154814	1.6.joi	114	2042	4
110812	13:56	31265154814	2.3.more	115	1942	5
110812	13:56	31265154814	2.5.non	116	1790	7
110812	13:56	31265154814	2.6.scar	117	2469	8
110812	13:56	31265154814	1.4.foob	118	3288	7
110812	13:56	31265154814	2.6.evil	119	1579	5
110812	13:56	31265154814	1.1.gub	120	1865	4
110812	15:05	6527825	speed	1	2929	37
110812	15:05	6527825	error	2	4426	94%
110812	15:05	6527825	whichhand	3	8989	Right
110812	15:05	6527825	2.6.kin	1	9998	6
110812	15:05	6527825	1.5.syg	2	6342	5
110812	15:05	6527825	1.4.moof	3	3960	7
110812	15:05	6527825	1.5.yeb	4	2568	5
110812	15:05	6527825	2.5.bar	5	2255	5
110812	15:05	6527825	2.4.dump	6	1971	4
110812	15:05	6527825	1.2.leel	7	3874	5
110812	15:05	6527825	1.6.lim	8	2342	5
110812	15:05	6527825	2.5.boy	9	2758	6
110812	15:05	6527825	2.2.sex	10	2294	5
110812	15:05	6527825	2.3.hate	11	2321	3
110812	15:05	6527825	2.4.free	12	3666	8
110812	15:05	6527825	1.3.vabe	13	2805	5
110812	15:05	6527825	2.2.slow	14	2659	5
110812	15:05	6527825	2.2.leap	15	2823	6
110812	15:05	6527825	1.1.ghun	16	1740	5
110812	15:05	6527825	1.3.tove	17	2301	5
110812	15:05	6527825	1.1.gub	18	1918	5
110812	15:05	6527825	1.6.joi	19	1032	5
110812	15:05	6527825	2.4.part	20	1819	5
110812	15:05	6527825	2.6.scar	21	1537	4
110812	15:05	6527825	2.4.tidy	22	2769	6
110812	15:05	6527825	2.2.cake	23	2312	7
110812	15:05	6527825	1.5.fuw	24	1153	5
110812	15:05	6527825	2.5.unit	25	1768	5
110812	15:05	6527825	1.5.tutk	26	1432	5
110812	15:05	6527825	1.4.foob	27	2556	5
110812	15:05	6527825	2.5.bomb	28	2491	4
110812	15:05	6527825	1.5.vaf	29	1278	5
110812	15:05	6527825	1.4.voom	30	2369	8
110812	15:05	6527825	1.4.noof	31	3872	7
110812	15:05	6527825	1.4.boog	32	1396	6
110812	15:05	6527825	2.6.evil	33	2713	4
110812	15:05	6527825	1.1.bryg	34	1218	5
110812	15:05	6527825	2.6.milk	35	2775	6
110812	15:05	6527825	1.6.vook	36	1654	5
110812	15:05	6527825	2.1.rug	37	2146	5
110812	15:05	6527825	2.1.guy	38	946	5
110812	15:05	6527825	2.1.bug	39	1225	5
110812	15:05	6527825	1.4.toof	40	1638	6
110812	15:05	6527825	1.1.fryn	41	1066	5
110812	15:05	6527825	1.2.likk	42	1260	5
110812	15:05	6527825	1.5.jufe	43	1136	5
110812	15:05	6527825	2.3.blue	44	1616	7
110812	15:05	6527825	1.2.zape	45	1293	7
110812	15:05	6527825	2.6.mask	46	1439	6
110812	15:05	6527825	1.6.soog	47	1299	5
110812	15:05	6527825	2.6.dog	48	3605	9
110812	15:05	6527825	1.3.jofe	49	1107	5
110812	15:05	6527825	1.4.yoof	50	1556	5
110812	15:05	6527825	1.3.yane	51	924	5
110812	15:05	6527825	2.6.cat	52	4740	9
110812	15:05	6527825	1.6.nilo	53	2902	6
110812	15:05	6527825	2.4.flag	54	2976	8
110812	15:05	6527825	2.5.fat	55	2479	2
110812	15:05	6527825	2.5.art	56	2529	7
110812	15:05	6527825	2.5.arm	57	2186	6
110812	15:05	6527825	1.2.xad	58	992	5
110812	15:05	6527825	1.3.jafe	59	919	5
110812	15:05	6527825	2.1.rut	60	3343	5
110812	15:05	6527825	1.1.guf	61	856	5
110812	15:05	6527825	1.1.nuv	62	803	5
110812	15:05	6527825	2.4.moon	63	2240	9
110812	15:05	6527825	2.3.yore	64	1981	5
110812	15:05	6527825	1.2.lale	65	1243	5
110812	15:05	6527825	1.2.lalo	66	1023	5
110812	15:05	6527825	2.4.lump	67	1532	6
110812	15:05	6527825	2.2.slid	68	1532	7
110812	15:05	6527825	2.2.cell	69	3268	7
110812	15:05	6527825	1.2.dax	70	1776	5
110812	15:05	6527825	2.2.lop	71	1311	5
110812	15:05	6527825	1.2.zake	72	1464	6
110812	15:05	6527825	1.2.zoke	73	1083	6
110812	15:05	6527825	2.3.more	74	2181	5
110812	15:05	6527825	2.3.obey	75	2483	4
110812	15:05	6527825	1.3.anay	76	1678	5
110812	15:05	6527825	1.6.vape	77	1025	5
110812	15:05	6527825	2.3.name	78	1597	6
110812	15:05	6527825	2.1.buy	79	1995	6
110812	15:05	6527825	1.5.bih	80	1217	5
110812	15:05	6527825	1.5.jaj	81	1198	5
110812	15:05	6527825	1.2.zeed	82	1419	4
110812	15:05	6527825	2.2.dead	83	2720	3
110812	15:05	6527825	2.4.body	84	1913	5
110812	15:05	6527825	2.1.thy	85	1050	5
110812	15:05	6527825	2.5.bus	86	1405	6
110812	15:05	6527825	1.6.kabe	87	939	5
110812	15:05	6527825	2.1.thus	88	1115	5
110812	15:05	6527825	2.2.lids	89	900	5
110812	15:05	6527825	1.3.yave	90	1229	5
110812	15:05	6527825	1.6.dofe	91	857	5
110812	15:05	6527825	2.1.but	92	1292	6
110812	15:05	6527825	2.6.pain	93	2198	3
110812	15:05	6527825	2.3.time	94	3364	6
110812	15:05	6527825	2.5.non	95	1036	5
110812	15:05	6527825	1.5.zyr	96	1664	5
110812	15:05	6527825	1.4.yeeb	97	1786	5
110812	15:05	6527825	2.5.grin	98	2361	8
110812	15:05	6527825	2.4.nude	99	1585	5
110812	15:05	6527825	1.1.mur	100	1271	5
110812	15:05	6527825	1.4.teef	101	1938	4
110812	15:05	6527825	1.3.tage	102	1057	5
110812	15:05	6527825	2.2.sick	103	1909	3
110812	15:05	6527825	2.6.dark	104	2791	9
110812	15:05	6527825	1.4.moob	105	1853	4
110812	15:05	6527825	1.1.vun	106	873	5
110812	15:05	6527825	2.4.foam	107	1428	6
110812	15:05	6527825	2.3.hard	108	1217	5
110812	15:05	6527825	2.1.fun	109	2237	8
110812	15:05	6527825	1.6.celm	110	914	5
110812	15:05	6527825	2.3.knot	111	971	5
110812	15:05	6527825	1.5.feg	112	1001	5
110812	15:05	6527825	2.3.star	113	1662	7
110812	15:05	6527825	2.6.slit	114	1977	5
110812	15:05	6527825	1.6.zote	115	1768	5
110812	15:05	6527825	2.1.fur	116	1855	6
110812	15:05	6527825	1.1.vuy	117	1323	5
110812	15:05	6527825	1.1.ryng	118	884	5
110812	15:05	6527825	1.3.yome	119	846	5
110812	15:05	6527825	1.3.mobe	120	825	5
