date	time	subject	trialcode	trialnum	latency	response
092412	08:56	8	speed	1	4708	46
092412	08:56	8	error	2	24022	97
092412	08:56	8	whichhand	3	6036	right
092412	08:56	8	1.4.moof	1	11615	7
092412	08:56	8	2.5.arm	2	8071	4
092412	08:56	8	2.1.fun	3	4420	8
092412	08:56	8	2.1.thus	4	3322	9
092412	08:56	8	1.1.vuy	5	4292	2
092412	08:56	8	1.2.zeed	6	3919	6
092412	08:56	8	1.5.jaj	7	3216	2
092412	08:56	8	1.6.zote	8	5174	5
092412	08:56	8	1.5.bih	9	2422	5
092412	08:56	8	2.1.fur	10	3083	2
092412	08:56	8	1.3.jofe	11	2678	2
092412	08:56	8	1.5.jufe	12	2049	2
092412	08:56	8	2.1.buy	13	3772	7
092412	08:56	8	1.1.ryng	14	4196	2
092412	08:56	8	2.1.rut	15	3627	7
092412	08:56	8	1.6.soog	16	3896	3
092412	08:56	8	2.4.nude	17	4602	6
092412	08:56	8	1.2.leel	18	6273	5
092412	08:56	8	2.6.scar	19	2925	4
092412	08:56	8	1.2.xad	20	2015	4
092412	08:56	8	2.4.body	21	5092	6
092412	08:56	8	2.2.lids	22	2703	6
092412	08:56	8	2.6.dark	23	2545	7
092412	08:56	8	1.6.vape	24	2905	3
092412	08:56	8	2.5.non	25	3035	7
092412	08:56	8	1.4.yoof	26	4047	7
092412	08:56	8	1.3.anay	27	6236	1
092412	08:56	8	1.2.lale	28	2506	2
092412	08:56	8	2.5.unit	29	1836	6
092412	08:56	8	2.1.rug	30	4352	4
092412	08:56	8	2.3.more	31	2664	4
092412	08:56	8	1.4.yeeb	32	3227	3
092412	08:56	8	2.1.guy	33	2361	8
092412	08:56	8	1.2.lalo	34	2225	3
092412	08:56	8	2.4.free	35	2870	8
092412	08:56	8	2.3.blue	36	2169	8
092412	08:56	8	1.1.gub	37	1936	3
092412	08:56	8	1.2.zape	38	1449	3
092412	08:56	8	2.1.thy	39	2180	8
092412	08:56	8	2.4.part	40	1850	7
092412	08:56	8	2.6.milk	41	2830	4
092412	08:56	8	2.5.bomb	42	2715	3
092412	08:56	8	2.6.slit	43	3588	3
092412	08:56	8	2.5.bar	44	2587	6
092412	08:56	8	1.3.tage	45	4905	3
092412	08:56	8	2.6.dog	46	2068	8
092412	08:56	8	2.6.evil	47	2895	6
092412	08:56	8	2.2.lop	48	3289	4
092412	08:56	8	1.2.likk	49	1780	2
092412	08:56	8	1.4.voom	50	2514	6
092412	08:56	8	1.4.foob	51	1683	2
092412	08:56	8	2.5.bus	52	2533	6
092412	08:56	8	1.1.bryg	53	1894	2
092412	08:56	8	1.1.ghun	54	1144	1
092412	08:56	8	2.2.leap	55	2216	6
092412	08:56	8	2.1.but	56	2205	5
092412	08:56	8	1.5.yeb	57	3907	1
092412	08:56	8	1.5.tutk	58	1197	1
092412	08:56	8	2.3.yore	59	2563	4
092412	08:56	8	2.2.cell	60	2954	7
092412	08:56	8	2.3.knot	61	4218	8
092412	08:56	8	1.4.teef	62	1912	3
092412	08:56	8	1.3.jafe	63	1681	3
092412	08:56	8	1.3.yome	64	2619	3
092412	08:56	8	2.2.sick	65	3184	4
092412	08:56	8	2.6.kin	66	3390	4
092412	08:56	8	1.1.mur	67	1614	4
092412	08:56	8	2.3.name	68	1994	7
092412	08:56	8	1.2.zoke	69	2745	4
092412	08:56	8	1.6.celm	70	2505	2
092412	08:56	8	2.2.slow	71	1651	6
092412	08:56	8	2.3.hard	72	3366	8
092412	08:56	8	2.3.hate	73	1966	7
092412	08:56	8	1.5.fuw	74	1893	3
092412	08:56	8	1.4.moob	75	4119	3
092412	08:56	8	2.3.time	76	1769	6
092412	08:56	8	2.5.fat	77	3744	2
092412	08:56	8	1.1.nuv	78	1793	2
092412	08:56	8	1.6.joi	79	1575	1
092412	08:56	8	2.4.flag	80	3406	8
092412	08:56	8	1.3.mobe	81	1652	3
092412	08:56	8	1.1.fryn	82	3040	1
092412	08:56	8	1.2.dax	83	1500	2
092412	08:56	8	2.4.dump	84	2574	6
092412	08:56	8	1.5.vaf	85	2253	3
092412	08:56	8	1.2.zake	86	1209	3
092412	08:56	8	1.4.boog	87	1774	3
092412	08:56	8	1.3.tove	88	981	3
092412	08:56	8	1.4.noof	89	843	3
092412	08:56	8	2.1.bug	90	2463	5
092412	08:56	8	2.5.boy	91	2042	7
092412	08:56	8	1.6.kabe	92	2574	4
092412	08:56	8	1.5.zyr	93	1686	1
092412	08:56	8	2.6.cat	94	2096	8
092412	08:56	8	2.2.cake	95	1058	8
092412	08:56	8	2.6.pain	96	3269	6
092412	08:56	8	1.6.vook	97	2240	2
092412	08:56	8	2.3.obey	98	2213	2
092412	08:56	8	1.3.yane	99	1434	3
092412	08:56	8	2.5.grin	100	2318	7
092412	08:56	8	1.4.toof	101	2071	2
092412	08:56	8	2.5.art	102	5474	7
092412	08:56	8	2.2.slid	103	4310	6
092412	08:56	8	1.6.dofe	104	1681	3
092412	08:56	8	2.6.mask	105	2899	6
092412	08:56	8	1.5.feg	106	2125	1
092412	08:56	8	2.4.tidy	107	3150	9
092412	08:56	8	1.1.vun	108	2718	2
092412	08:56	8	2.2.sex	109	2672	8
092412	08:56	8	1.6.nilo	110	1907	2
092412	08:56	8	1.5.syg	111	1116	1
092412	08:56	8	2.3.star	112	2365	8
092412	08:56	8	2.2.dead	113	3092	4
092412	08:56	8	1.6.lim	114	1919	3
092412	08:56	8	1.3.yave	115	1560	2
092412	08:56	8	2.4.foam	116	1759	8
092412	08:56	8	1.1.guf	117	1583	3
092412	08:56	8	1.3.vabe	118	1741	3
092412	08:56	8	2.4.lump	119	1734	6
092412	08:56	8	2.4.moon	120	1446	7
092412	09:27	8	speed	1	3410	46
092412	09:27	8	error	2	3453	100
092412	09:27	8	whichhand	3	7881	right
092412	09:27	8	2.5.grin	1	20560	6
092412	09:27	8	2.4.free	2	11718	9
092412	09:27	8	1.2.xad	3	6395	5
092412	09:27	8	1.4.yeeb	4	2002	5
092412	09:27	8	2.4.flag	5	3367	4
092412	09:27	8	1.4.teef	6	1751	5
092412	09:27	8	2.6.dog	7	3158	7
092412	09:27	8	1.1.bryg	8	1639	5
092412	09:27	8	1.1.gub	9	2155	5
092412	09:27	8	2.5.bomb	10	3779	3
092412	09:27	8	2.6.kin	11	2018	6
092412	09:27	8	2.2.dead	12	2638	1
092412	09:27	8	2.3.hard	13	1915	1
092412	09:27	8	2.6.mask	14	2540	5
092412	09:27	8	2.4.moon	15	1997	7
092412	09:27	8	2.5.bus	16	1922	5
092412	09:27	8	2.3.name	17	1739	5
092412	09:27	8	2.5.non	18	1396	5
092412	09:27	8	1.6.zote	19	1529	5
092412	09:27	8	2.4.nude	20	3289	7
092412	09:27	8	1.3.anay	21	1620	5
092412	09:27	8	2.3.blue	22	1785	6
092412	09:27	8	2.5.art	23	2175	7
092412	09:27	8	1.4.boog	24	1870	5
092412	09:27	8	1.6.vook	25	1521	5
092412	09:27	8	1.5.syg	26	1634	5
092412	09:27	8	2.3.hate	27	2846	1
092412	09:27	8	1.4.foob	28	1426	5
092412	09:27	8	2.3.yore	29	1319	5
092412	09:27	8	1.6.dofe	30	3808	4
092412	09:27	8	1.6.soog	31	1310	5
092412	09:27	8	1.2.zake	32	1464	5
092412	09:27	8	1.6.vape	33	1394	5
092412	09:27	8	1.2.lale	34	1432	5
092412	09:27	8	2.2.lids	35	3789	5
092412	09:27	8	2.6.milk	36	2420	7
092412	09:27	8	2.3.more	37	3745	6
092412	09:27	8	2.5.unit	38	1457	6
092412	09:27	8	2.5.arm	39	11092	6
092412	09:27	8	1.5.jufe	40	4865	5
092412	09:27	8	2.3.obey	41	3877	6
092412	09:27	8	2.1.thus	42	2633	5
092412	09:27	8	2.1.buy	43	9797	7
092412	09:27	8	1.3.yane	44	2981	5
092412	09:27	8	1.5.vaf	45	1332	5
092412	09:27	8	1.6.joi	46	1308	5
092412	09:27	8	1.6.lim	47	1942	5
092412	09:27	8	1.1.ryng	48	1862	5
092412	09:27	8	2.6.scar	49	4889	6
092412	09:27	8	1.2.likk	50	1604	5
092412	09:27	8	1.3.mobe	51	1282	5
092412	09:27	8	1.5.zyr	52	1276	5
092412	09:27	8	2.6.slit	53	3975	4
092412	09:27	8	1.4.moof	54	1735	5
092412	09:27	8	1.1.mur	55	1143	5
092412	09:27	8	1.3.yave	56	1175	5
092412	09:27	8	2.4.lump	57	1926	4
092412	09:27	8	1.4.toof	58	1055	5
092412	09:27	8	1.5.feg	59	1314	5
092412	09:27	8	2.4.part	60	1994	6
092412	09:27	8	2.4.tidy	61	3129	7
092412	09:27	8	1.4.moob	62	1378	5
092412	09:27	8	1.4.yoof	63	1713	5
092412	09:27	8	2.2.sick	64	2681	3
092412	09:27	8	2.5.fat	65	2500	1
092412	09:27	8	2.6.evil	66	2430	2
092412	09:27	8	2.1.rut	67	1986	3
092412	09:27	8	2.1.thy	68	4081	4
092412	09:27	8	2.1.bug	69	2844	6
092412	09:27	8	1.5.bih	70	1904	5
092412	09:27	8	2.3.time	71	3442	9
092412	09:27	8	1.6.kabe	72	2303	5
092412	09:27	8	1.4.voom	73	1200	5
092412	09:27	8	1.2.zoke	74	1702	5
092412	09:27	8	2.4.body	75	4095	7
092412	09:27	8	2.5.boy	76	1802	6
092412	09:27	8	1.3.yome	77	1344	5
092412	09:27	8	1.2.zape	78	1352	5
092412	09:27	8	2.6.cat	79	6775	4
092412	09:27	8	1.1.nuv	80	1184	5
092412	09:27	8	1.5.tutk	81	1286	5
092412	09:27	8	2.3.star	82	2688	7
092412	09:27	8	2.2.cell	83	3866	7
092412	09:27	8	1.2.zeed	84	1150	5
092412	09:27	8	1.4.noof	85	1094	5
092412	09:27	8	1.1.vuy	86	1119	5
092412	09:27	8	1.3.jafe	87	832	5
092412	09:27	8	2.2.lop	88	2132	6
092412	09:27	8	1.5.fuw	89	1229	5
092412	09:27	8	2.2.slid	90	1889	6
092412	09:27	8	1.3.tage	91	1147	5
092412	09:27	8	1.2.dax	92	987	5
092412	09:27	8	1.5.jaj	93	1017	5
092412	09:27	8	2.1.rug	94	2957	7
092412	09:27	8	2.1.but	95	3701	5
092412	09:27	8	2.1.fun	96	1943	9
092412	09:27	8	2.6.dark	97	1840	9
092412	09:27	8	2.5.bar	98	10356	6
092412	09:27	8	2.4.dump	99	2854	6
092412	09:27	8	1.3.vabe	100	978	5
092412	09:27	8	2.3.knot	101	3840	4
092412	09:27	8	1.3.jofe	102	3349	5
092412	09:27	8	1.3.tove	103	1893	5
092412	09:27	8	2.6.pain	104	1840	3
092412	09:27	8	2.2.slow	105	8052	5
092412	09:27	8	1.2.leel	106	5385	5
092412	09:27	8	1.6.celm	107	5041	5
092412	09:27	8	2.2.leap	108	5990	6
092412	09:27	8	2.4.foam	109	1470	5
092412	09:27	8	2.1.guy	110	3377	5
092412	09:27	8	1.1.guf	111	2001	5
092412	09:27	8	2.2.sex	112	2126	9
092412	09:27	8	1.2.lalo	113	2015	5
092412	09:27	8	1.1.ghun	114	1636	5
092412	09:27	8	2.1.fur	115	1545	5
092412	09:27	8	2.2.cake	116	3065	7
092412	09:27	8	1.1.vun	117	1276	5
092412	09:27	8	1.6.nilo	118	1287	5
092412	09:27	8	1.5.yeb	119	1361	5
092412	09:27	8	1.1.fryn	120	1321	5
092612	11:36	345	speed	1	2008	45
092612	11:36	345	error	2	2461	100
092612	11:36	345	whichhand	3	23272	right
092612	11:36	345	1.1.ghun	1	19659	3
092612	11:36	345	1.3.yane	2	9980	5
092612	11:36	345	1.6.vook	3	8061	6
092612	11:36	345	2.1.fur	4	3770	8
092612	11:36	345	1.5.fuw	5	5242	4
092612	11:36	345	2.6.cat	6	2343	8
092612	11:36	345	1.5.tutk	7	4360	4
092612	11:36	345	2.3.more	8	3448	8
092612	11:36	345	1.2.lale	9	2220	5
092612	11:36	345	1.3.yave	10	3906	3
092612	11:36	345	2.1.rug	11	3716	5
092612	11:36	345	2.4.flag	12	4085	4
092612	11:36	345	2.3.name	13	2697	7
092612	11:36	345	2.3.star	14	2283	8
092612	11:36	345	2.2.lids	15	2805	7
092612	11:36	345	1.1.gub	16	3187	4
092612	11:36	345	1.4.noof	17	2945	4
092612	11:36	345	2.1.thus	18	2225	5
092612	11:36	345	2.2.lop	19	4663	4
092612	11:36	345	2.5.fat	20	2155	2
092612	11:36	345	1.2.zape	21	2378	6
092612	11:36	345	1.1.ryng	22	2825	8
092612	11:36	345	1.4.yoof	23	6294	6
092612	11:36	345	2.5.arm	24	3801	7
092612	11:36	345	2.2.leap	25	1887	6
092612	11:36	345	1.3.tove	26	4706	5
092612	11:36	345	2.4.dump	27	5260	2
092612	11:36	345	2.1.buy	28	1896	8
092612	11:36	345	2.6.evil	29	2978	1
092612	11:36	345	1.2.zake	30	2921	7
092612	11:36	345	1.2.zoke	31	2418	6
092612	11:36	345	1.4.boog	32	2279	2
092612	11:36	345	1.5.jufe	33	2130	5
092612	11:36	345	1.2.dax	34	4394	5
092612	11:36	345	2.1.guy	35	2688	8
092612	11:36	345	2.2.sick	36	2091	2
092612	11:36	345	2.6.mask	37	3917	4
092612	11:36	345	1.5.zyr	38	3239	5
092612	11:36	345	2.3.blue	39	1932	8
092612	11:36	345	2.3.hate	40	2916	2
092612	11:36	345	2.3.knot	41	3325	3
092612	11:36	345	1.1.fryn	42	3735	4
092612	11:36	345	1.3.tage	43	6767	6
092612	11:36	345	1.5.syg	44	2232	6
092612	11:36	345	2.1.bug	45	2501	3
092612	11:36	345	2.5.bar	46	2582	6
092612	11:36	345	1.6.kabe	47	1941	5
092612	11:36	345	2.3.obey	48	2509	5
092612	11:36	345	2.4.moon	49	2839	6
092612	11:36	345	1.6.vape	50	2500	2
092612	11:36	345	2.6.pain	51	2134	1
092612	11:36	345	2.2.slow	52	2902	5
092612	11:36	345	1.4.voom	53	2688	6
092612	11:36	345	1.2.xad	54	2675	5
092612	11:36	345	1.5.feg	55	2382	3
092612	11:36	345	2.4.body	56	8132	5
092612	11:36	345	2.6.scar	57	2822	4
092612	11:36	345	2.4.foam	58	3452	3
092612	11:36	345	1.3.jafe	59	2712	5
092612	11:36	345	1.2.lalo	60	3337	6
092612	11:36	345	1.4.moob	61	6122	4
092612	11:36	345	1.3.mobe	62	2676	5
092612	11:36	345	1.6.zote	63	4768	6
092612	11:36	345	1.6.celm	64	2807	5
092612	11:36	345	1.1.vun	65	6765	7
092612	11:36	345	1.3.anay	66	4830	6
092612	11:36	345	2.6.kin	67	2779	8
092612	11:36	345	2.6.dark	68	2066	2
092612	11:36	345	1.3.yome	69	2653	6
092612	11:36	345	1.4.yeeb	70	3353	7
092612	11:36	345	1.1.nuv	71	4153	6
092612	11:36	345	2.3.hard	72	4953	5
092612	11:36	345	2.1.thy	73	2986	3
092612	11:36	345	1.1.mur	74	3825	4
092612	11:36	345	1.6.joi	75	2926	8
092612	11:36	345	2.5.bomb	76	3687	3
092612	11:36	345	2.6.slit	77	7970	4
092612	11:36	345	2.5.grin	78	4468	9
092612	11:36	345	2.2.dead	79	2151	1
092612	11:36	345	2.2.slid	80	5439	5
092612	11:36	345	2.6.dog	81	2380	8
092612	11:36	345	1.4.moof	82	8267	6
092612	11:36	345	2.4.free	83	3424	8
092612	11:36	345	1.5.yeb	84	2422	6
092612	11:36	345	2.6.milk	85	2499	8
092612	11:36	345	1.6.soog	86	3484	3
092612	11:36	345	1.2.zeed	87	5343	7
092612	11:36	345	1.4.teef	88	2665	7
092612	11:36	345	2.2.sex	89	6196	8
092612	11:36	345	2.3.yore	90	9475	6
092612	11:36	345	1.1.bryg	91	6656	5
092612	11:36	345	2.1.fun	92	2254	9
092612	11:36	345	2.3.time	93	6089	6
092612	11:36	345	2.2.cake	94	2869	5
092612	11:36	345	1.3.vabe	95	2536	6
092612	11:36	345	1.1.vuy	96	3921	8
092612	11:36	345	2.5.non	97	4411	4
092612	11:36	345	1.6.nilo	98	8624	6
092612	11:36	345	2.5.unit	99	2504	3
092612	11:36	345	2.4.tidy	100	2425	8
092612	11:36	345	2.1.but	101	5774	5
092612	11:36	345	1.2.leel	102	6175	4
092612	11:36	345	2.1.rut	103	2031	4
092612	11:36	345	2.5.bus	104	3588	3
092612	11:36	345	1.3.jofe	105	3914	7
092612	11:36	345	2.4.nude	106	5292	7
092612	11:36	345	2.5.art	107	1920	8
092612	11:36	345	1.5.jaj	108	7320	5
092612	11:36	345	1.1.guf	109	7907	4
092612	11:36	345	1.5.bih	110	3767	6
092612	11:36	345	1.6.lim	111	2526	6
092612	11:36	345	1.4.foob	112	3568	7
092612	11:36	345	1.6.dofe	113	8319	7
092612	11:36	345	2.4.lump	114	3778	1
092612	11:36	345	2.5.boy	115	2561	8
092612	11:36	345	1.2.likk	116	3024	6
092612	11:36	345	2.4.part	117	7478	4
092612	11:36	345	2.2.cell	118	3930	2
092612	11:36	345	1.5.vaf	119	2155	6
092612	11:36	345	1.4.toof	120	3826	6
092612	14:33	1481258259	speed	1	23810	55
092612	14:33	1481258259	error	2	5750	98
092612	14:33	1481258259	whichhand	3	5528	right
092612	14:33	1481258259	1.1.gub	1	6359	1
092612	14:33	1481258259	1.1.nuv	2	7336	2
092612	14:33	1481258259	1.1.ghun	3	3579	3
092612	14:33	1481258259	2.5.bus	4	4897	7
092612	14:33	1481258259	2.4.moon	5	1868	9
092612	14:33	1481258259	1.2.zeed	6	2623	5
092612	14:33	1481258259	1.5.feg	7	2644	1
092612	14:33	1481258259	2.6.mask	8	2025	6
092612	14:33	1481258259	2.6.pain	9	4062	3
092612	14:33	1481258259	2.2.cell	10	3730	1
092612	14:33	1481258259	2.4.foam	11	2906	7
092612	14:33	1481258259	2.3.hate	12	1181	1
092612	14:33	1481258259	2.4.body	13	3546	5
092612	14:33	1481258259	2.4.dump	14	2395	5
092612	14:33	1481258259	1.3.mobe	15	2513	7
092612	14:33	1481258259	1.5.zyr	16	1618	1
092612	14:33	1481258259	1.1.fryn	17	3719	1
092612	14:33	1481258259	2.5.bomb	18	2168	1
092612	14:33	1481258259	2.6.dog	19	4839	7
092612	14:33	1481258259	2.1.bug	20	1652	7
092612	14:33	1481258259	1.3.anay	21	1392	1
092612	14:33	1481258259	2.1.buy	22	3254	9
092612	14:33	1481258259	2.5.fat	23	3922	6
092612	14:33	1481258259	2.1.fur	24	2364	6
092612	14:33	1481258259	1.3.jofe	25	4459	1
092612	14:33	1481258259	1.4.voom	26	1880	2
092612	14:33	1481258259	1.3.yane	27	1378	1
092612	14:33	1481258259	1.5.fuw	28	1729	1
092612	14:33	1481258259	1.6.joi	29	905	1
092612	14:33	1481258259	1.2.lale	30	5618	1
092612	14:33	1481258259	2.2.slow	31	2680	6
092612	14:33	1481258259	1.1.guf	32	979	1
092612	14:33	1481258259	2.5.unit	33	2457	8
092612	14:33	1481258259	1.4.teef	34	2021	1
092612	14:33	1481258259	2.2.leap	35	1554	6
092612	14:33	1481258259	1.3.vabe	36	2121	1
092612	14:33	1481258259	1.6.nilo	37	4306	2
092612	14:33	1481258259	2.3.name	38	2893	9
092612	14:33	1481258259	2.2.sex	39	1080	9
092612	14:33	1481258259	2.4.lump	40	4681	5
092612	14:33	1481258259	1.3.yave	41	1077	1
092612	14:33	1481258259	1.4.toof	42	2216	1
092612	14:33	1481258259	1.5.tutk	43	3252	1
092612	14:33	1481258259	2.5.grin	44	2441	9
092612	14:33	1481258259	1.2.leel	45	3357	5
092612	14:33	1481258259	2.3.star	46	2189	9
092612	14:33	1481258259	2.1.rug	47	5524	7
092612	14:33	1481258259	2.3.yore	48	2230	1
092612	14:33	1481258259	1.4.yoof	49	962	1
092612	14:33	1481258259	2.6.slit	50	5937	7
092612	14:33	1481258259	1.3.yome	51	1482	1
092612	14:33	1481258259	1.6.vape	52	1045	1
092612	14:33	1481258259	2.1.thy	53	3929	7
092612	14:33	1481258259	1.4.moof	54	1330	1
092612	14:33	1481258259	1.2.zoke	55	1866	1
092612	14:33	1481258259	1.4.moob	56	1469	1
092612	14:33	1481258259	1.1.vun	57	1280	1
092612	14:33	1481258259	1.1.ryng	58	3250	5
092612	14:33	1481258259	2.6.evil	59	9254	4
092612	14:33	1481258259	1.2.xad	60	2572	1
092612	14:33	1481258259	2.2.cake	61	2643	9
092612	14:33	1481258259	1.4.boog	62	2640	9
092612	14:33	1481258259	2.4.free	63	2068	9
092612	14:33	1481258259	2.6.kin	64	4287	6
092612	14:33	1481258259	2.6.dark	65	4506	7
092612	14:33	1481258259	2.6.scar	66	2829	6
092612	14:33	1481258259	2.1.but	67	4489	5
092612	14:33	1481258259	2.3.obey	68	6389	4
092612	14:33	1481258259	1.6.dofe	69	6276	3
092612	14:33	1481258259	2.2.sick	70	2993	4
092612	14:33	1481258259	2.5.art	71	4511	5
092612	14:33	1481258259	1.5.jaj	72	3080	2
092612	14:33	1481258259	2.2.slid	73	5996	6
092612	14:33	1481258259	2.5.non	74	3891	5
092612	14:33	1481258259	1.5.yeb	75	4318	3
092612	14:33	1481258259	2.5.arm	76	3024	5
092612	14:33	1481258259	1.1.vuy	77	4309	3
092612	14:33	1481258259	1.5.jufe	78	1432	3
092612	14:33	1481258259	1.3.jafe	79	1548	3
092612	14:33	1481258259	2.4.part	80	4755	6
092612	14:33	1481258259	2.6.milk	81	6844	8
092612	14:33	1481258259	2.4.tidy	82	2385	9
092612	14:33	1481258259	1.2.zape	83	3759	3
092612	14:33	1481258259	1.6.kabe	84	1448	3
092612	14:33	1481258259	1.2.dax	85	1131	3
092612	14:33	1481258259	1.4.noof	86	1147	3
092612	14:33	1481258259	2.4.nude	87	3595	6
092612	14:33	1481258259	2.2.lop	88	3457	3
092612	14:33	1481258259	1.6.soog	89	3205	3
092612	14:33	1481258259	1.4.yeeb	90	3275	1
092612	14:33	1481258259	2.6.cat	91	4551	7
092612	14:33	1481258259	1.6.vook	92	4903	3
092612	14:33	1481258259	1.5.vaf	93	3994	3
092612	14:33	1481258259	1.5.bih	94	3681	3
092612	14:33	1481258259	2.3.knot	95	3851	8
092612	14:33	1481258259	1.3.tage	96	4792	3
092612	14:33	1481258259	2.1.guy	97	2639	9
092612	14:33	1481258259	2.5.boy	98	1244	9
092612	14:33	1481258259	1.6.lim	99	3704	4
092612	14:33	1481258259	1.1.mur	100	2130	3
092612	14:33	1481258259	2.3.hard	101	4122	9
092612	14:33	1481258259	1.5.syg	102	3692	3
092612	14:33	1481258259	1.2.zake	103	5527	1
092612	14:33	1481258259	1.6.celm	104	2529	2
092612	14:33	1481258259	2.3.time	105	1633	9
092612	14:33	1481258259	2.1.thus	106	2629	5
092612	14:33	1481258259	1.6.zote	107	2306	3
092612	14:33	1481258259	2.1.fun	108	2843	9
092612	14:33	1481258259	2.5.bar	109	1369	9
092612	14:33	1481258259	1.3.tove	110	4047	2
092612	14:33	1481258259	2.2.lids	111	2172	3
092612	14:33	1481258259	2.2.dead	112	4402	6
092612	14:33	1481258259	1.2.lalo	113	7041	6
092612	14:33	1481258259	2.3.more	114	1583	9
092612	14:33	1481258259	2.1.rut	115	1861	5
092612	14:33	1481258259	1.2.likk	116	2489	5
092612	14:33	1481258259	2.4.flag	117	7067	7
092612	14:33	1481258259	2.3.blue	118	1672	9
092612	14:33	1481258259	1.1.bryg	119	2435	4
092612	14:33	1481258259	1.4.foob	120	1735	1
092712	10:00	849	speed	1	7581	49
092712	10:00	849	error	2	5927	92
092712	10:00	849	whichhand	3	12273	right
092712	10:00	849	1.2.xad	1	20363	5
092712	10:00	849	2.1.bug	2	13768	3
092712	10:00	849	1.2.leel	3	7931	6
092712	10:00	849	2.6.cat	4	3109	9
092712	10:00	849	2.3.more	5	8839	7
092712	10:00	849	1.1.guf	6	5814	8
092712	10:00	849	2.3.hate	7	2820	1
092712	10:00	849	2.1.thus	8	3065	5
092712	10:00	849	1.3.tove	9	2925	5
092712	10:00	849	2.2.sick	10	3094	1
092712	10:00	849	1.3.vabe	11	12176	6
092712	10:00	849	1.3.mobe	12	6666	4
092712	10:00	849	1.2.likk	13	2935	6
092712	10:00	849	1.5.yeb	14	7863	7
092712	10:00	849	2.5.unit	15	4957	6
092712	10:00	849	2.3.obey	16	3837	7
092712	10:00	849	1.4.foob	17	6586	8
092712	10:00	849	1.5.jaj	18	5882	5
092712	10:00	849	2.2.lids	19	9125	3
092712	10:00	849	1.5.bih	20	10992	8
092712	10:00	849	1.6.zote	21	4041	4
092712	10:00	849	2.5.grin	22	3014	9
092712	10:00	849	2.1.rut	23	3907	2
092712	10:00	849	2.5.non	24	3725	4
092712	10:00	849	2.4.foam	25	3935	9
092712	10:00	849	2.3.name	26	3408	9
092712	10:00	849	2.6.mask	27	3942	7
092712	10:00	849	1.5.syg	28	5863	2
092712	10:00	849	1.6.lim	29	2955	6
092712	10:00	849	2.6.kin	30	4499	2
092712	10:00	849	1.1.ghun	31	4814	7
092712	10:00	849	2.4.flag	32	4332	7
092712	10:00	849	1.3.tage	33	3493	4
092712	10:00	849	2.4.part	34	7360	6
092712	10:00	849	2.6.dark	35	3905	1
092712	10:00	849	2.4.dump	36	3195	1
092712	10:00	849	2.6.scar	37	2513	1
092712	10:00	849	2.6.dog	38	2162	9
092712	10:00	849	1.3.yane	39	3337	3
092712	10:00	849	1.1.nuv	40	7258	4
092712	10:00	849	2.4.moon	41	2143	9
092712	10:00	849	1.4.yeeb	42	2392	9
092712	10:00	849	1.2.zeed	43	3534	6
092712	10:00	849	2.2.cell	44	3079	9
092712	10:00	849	2.6.milk	45	2130	9
092712	10:00	849	1.2.zape	46	2946	4
092712	10:00	849	2.2.sex	47	3458	9
092712	10:00	849	2.1.buy	48	4614	7
092712	10:00	849	1.3.yome	49	3484	4
092712	10:00	849	2.3.yore	50	4479	5
092712	10:00	849	1.6.joi	51	2338	7
092712	10:00	849	1.6.celm	52	2531	5
092712	10:00	849	1.1.mur	53	4211	8
092712	10:00	849	1.6.kabe	54	2561	4
092712	10:00	849	1.5.zyr	55	1697	4
092712	10:00	849	1.6.nilo	56	2938	7
092712	10:00	849	2.2.leap	57	6891	8
092712	10:00	849	1.6.dofe	58	3070	5
092712	10:00	849	1.5.tutk	59	7554	6
092712	10:00	849	2.3.hard	60	4260	4
092712	10:00	849	1.6.vook	61	3784	6
092712	10:00	849	1.2.lale	62	8407	5
092712	10:00	849	1.5.jufe	63	2599	5
092712	10:00	849	2.2.dead	64	2501	1
092712	10:00	849	2.1.thy	65	2471	6
092712	10:00	849	1.3.yave	66	1802	5
092712	10:00	849	2.4.nude	67	2487	9
092712	10:00	849	2.1.rug	68	2346	9
092712	10:00	849	2.3.star	69	1946	9
092712	10:00	849	1.5.vaf	70	3009	1
092712	10:00	849	2.5.bar	71	2087	9
092712	10:00	849	2.5.bomb	72	2498	4
092712	10:00	849	1.1.vuy	73	2515	4
092712	10:00	849	2.4.body	74	2597	9
092712	10:00	849	1.4.boog	75	2498	6
092712	10:00	849	2.2.slid	76	2388	9
092712	10:00	849	2.2.cake	77	1995	9
092712	10:00	849	1.1.gub	78	2912	1
092712	10:00	849	2.6.evil	79	2354	1
092712	10:00	849	2.6.pain	80	2730	1
092712	10:00	849	2.5.art	81	2162	9
092712	10:00	849	2.2.lop	82	2081	4
092712	10:00	849	1.6.vape	83	2636	6
092712	10:00	849	1.2.dax	84	3720	6
092712	10:00	849	1.3.jafe	85	2298	4
092712	10:00	849	1.1.fryn	86	2772	6
092712	10:00	849	2.2.slow	87	3179	1
092712	10:00	849	2.6.slit	88	3689	1
092712	10:00	849	2.4.tidy	89	4868	7
092712	10:00	849	1.4.noof	90	2184	4
092712	10:00	849	1.3.anay	91	4351	4
092712	10:00	849	2.4.free	92	2191	9
092712	10:00	849	1.2.zake	93	3958	4
092712	10:00	849	2.3.time	94	5118	9
092712	10:00	849	1.1.vun	95	5272	4
092712	10:00	849	2.1.fun	96	2428	9
092712	10:00	849	2.5.fat	97	3800	1
092712	10:00	849	1.4.moob	98	2159	7
092712	10:00	849	2.4.lump	99	2470	1
092712	10:00	849	1.3.jofe	100	5090	4
092712	10:00	849	2.1.but	101	4821	5
092712	10:00	849	2.5.arm	102	2387	9
092712	10:00	849	2.5.bus	103	2553	9
092712	10:00	849	1.5.fuw	104	3865	4
092712	10:00	849	1.2.zoke	105	4869	6
092712	10:00	849	1.6.soog	106	6761	6
092712	10:00	849	1.2.lalo	107	3753	6
092712	10:00	849	2.3.knot	108	2282	4
092712	10:00	849	1.1.bryg	109	1860	4
092712	10:00	849	1.4.yoof	110	2584	4
092712	10:00	849	2.1.fur	111	2518	9
092712	10:00	849	1.4.teef	112	3798	7
092712	10:00	849	1.4.voom	113	2422	9
092712	10:00	849	1.1.ryng	114	1851	3
092712	10:00	849	1.5.feg	115	2606	4
092712	10:00	849	2.5.boy	116	2260	9
092712	10:00	849	2.3.blue	117	1976	9
092712	10:00	849	1.4.toof	118	2127	4
092712	10:00	849	2.1.guy	119	2888	9
092712	10:00	849	1.4.moof	120	4779	4
092712	10:37	6	speed	1	3917	26
092712	10:37	6	error	2	2701	84
092712	10:37	6	whichhand	3	8016	right
092712	10:37	6	2.3.name	1	15675	5
092712	10:37	6	2.3.more	2	6154	7
092712	10:37	6	1.2.zoke	3	3091	2
092712	10:37	6	2.4.body	4	4198	5
092712	10:37	6	2.1.rut	5	2940	4
092712	10:37	6	1.2.lale	6	1853	3
092712	10:37	6	2.3.blue	7	2008	5
092712	10:37	6	2.2.slow	8	3262	5
092712	10:37	6	1.1.nuv	9	1458	5
092712	10:37	6	1.4.teef	10	1661	5
092712	10:37	6	2.1.but	11	2873	5
092712	10:37	6	1.2.zeed	12	1963	3
092712	10:37	6	1.5.tutk	13	2651	1
092712	10:37	6	2.5.fat	14	2646	1
092712	10:37	6	1.6.celm	15	2155	3
092712	10:37	6	1.1.vun	16	2058	4
092712	10:37	6	1.6.joi	17	3478	8
092712	10:37	6	2.4.tidy	18	2857	5
092712	10:37	6	1.1.bryg	19	2221	4
092712	10:37	6	2.1.thus	20	2138	5
092712	10:37	6	1.5.jufe	21	1906	4
092712	10:37	6	1.5.vaf	22	1932	5
092712	10:37	6	2.6.evil	23	2468	1
092712	10:37	6	2.3.obey	24	3431	8
092712	10:37	6	2.1.bug	25	2068	1
092712	10:37	6	2.4.nude	26	2655	3
092712	10:37	6	1.3.vabe	27	2411	5
092712	10:37	6	2.6.dark	28	2561	4
092712	10:37	6	1.4.voom	29	2161	5
092712	10:37	6	2.5.arm	30	2281	5
092712	10:37	6	1.1.gub	31	3211	5
092712	10:37	6	2.4.flag	32	1672	5
092712	10:37	6	2.3.hate	33	2139	1
092712	10:37	6	2.5.bar	34	1908	5
092712	10:37	6	2.2.cell	35	2109	5
092712	10:37	6	1.2.likk	36	1855	5
092712	10:37	6	2.6.kin	37	1923	5
092712	10:37	6	2.2.sex	38	3420	5
092712	10:37	6	2.4.free	39	1737	5
092712	10:37	6	2.2.sick	40	2025	1
092712	10:37	6	1.4.yoof	41	1846	5
092712	10:37	6	1.3.yome	42	1386	5
092712	10:37	6	2.1.fur	43	1560	5
092712	10:37	6	2.6.cat	44	1928	1
092712	10:37	6	1.3.jofe	45	1465	5
092712	10:37	6	1.4.foob	46	1284	5
092712	10:37	6	1.3.yane	47	1294	5
092712	10:37	6	1.5.bih	48	1696	5
092712	10:37	6	1.6.nilo	49	1689	5
092712	10:37	6	2.1.fun	50	1899	5
092712	10:37	6	1.6.lim	51	1549	5
092712	10:37	6	1.5.feg	52	1789	5
092712	10:37	6	1.1.ghun	53	1843	5
092712	10:37	6	2.6.dog	54	2263	7
092712	10:37	6	2.4.moon	55	3138	6
092712	10:37	6	1.4.boog	56	1619	5
092712	10:37	6	1.2.zake	57	5416	5
092712	10:37	6	1.6.kabe	58	5782	5
092712	10:37	6	2.6.slit	59	5062	5
092712	10:37	6	2.4.lump	60	2050	5
092712	10:37	6	2.2.cake	61	2333	8
092712	10:37	6	2.5.bus	62	2390	5
092712	10:37	6	2.5.unit	63	1604	5
092712	10:37	6	2.6.milk	64	2290	6
092712	10:37	6	2.4.dump	65	2060	5
092712	10:37	6	2.3.yore	66	1248	5
092712	10:37	6	1.5.syg	67	956	5
092712	10:37	6	1.5.zyr	68	1531	5
092712	10:37	6	1.2.lalo	69	1067	5
092712	10:37	6	2.6.mask	70	1086	5
092712	10:37	6	1.6.vook	71	1088	5
092712	10:37	6	1.3.anay	72	1058	5
092712	10:37	6	2.3.time	73	2597	6
092712	10:37	6	2.1.rug	74	2155	5
092712	10:37	6	2.5.boy	75	2019	7
092712	10:37	6	1.1.guf	76	1712	5
092712	10:37	6	2.4.foam	77	1769	5
092712	10:37	6	2.5.art	78	2016	5
092712	10:37	6	1.1.fryn	79	1020	5
092712	10:37	6	1.3.jafe	80	929	5
092712	10:37	6	1.1.mur	81	969	5
092712	10:37	6	2.5.grin	82	2112	5
092712	10:37	6	1.4.moob	83	929	5
092712	10:37	6	2.4.part	84	1825	5
092712	10:37	6	1.5.jaj	85	814	5
092712	10:37	6	1.2.leel	86	1035	5
092712	10:37	6	2.5.non	87	767	5
092712	10:37	6	2.5.bomb	88	997	5
092712	10:37	6	2.2.leap	89	1315	6
092712	10:37	6	1.6.soog	90	2963	5
092712	10:37	6	2.2.lop	91	1019	5
092712	10:37	6	1.1.vuy	92	687	5
092712	10:37	6	2.1.guy	93	2497	8
092712	10:37	6	2.2.lids	94	2011	5
092712	10:37	6	2.3.hard	95	2457	6
092712	10:37	6	2.3.knot	96	877	5
092712	10:37	6	1.3.tove	97	735	5
092712	10:37	6	2.1.thy	98	991	5
092712	10:37	6	1.6.dofe	99	989	5
092712	10:37	6	1.3.tage	100	747	5
092712	10:37	6	2.2.dead	101	4130	1
092712	10:37	6	2.6.scar	102	2059	5
092712	10:37	6	1.6.vape	103	1943	5
092712	10:37	6	1.3.yave	104	895	5
092712	10:37	6	2.3.star	105	1417	5
092712	10:37	6	2.2.slid	106	3598	5
092712	10:37	6	1.3.mobe	107	932	5
092712	10:37	6	1.2.xad	108	940	5
092712	10:37	6	1.4.yeeb	109	932	5
092712	10:37	6	1.4.toof	110	804	5
092712	10:37	6	1.5.fuw	111	833	5
092712	10:37	6	1.4.noof	112	773	5
092712	10:37	6	1.2.dax	113	748	5
092712	10:37	6	1.2.zape	114	667	5
092712	10:37	6	2.6.pain	115	3086	2
092712	10:37	6	1.6.zote	116	1192	6
092712	10:37	6	1.4.moof	117	638	5
092712	10:37	6	1.5.yeb	118	562	5
092712	10:37	6	2.1.buy	119	633	5
092712	10:37	6	1.1.ryng	120	661	5
092712	11:55	564942	speed	1	6574	45
092712	11:55	564942	error	2	3143	88
092712	11:55	564942	whichhand	3	45647	right
092712	11:55	564942	1.5.vaf	1	12512	4
092712	11:55	564942	1.6.lim	2	2813	5
092712	11:55	564942	1.1.fryn	3	2258	6
092712	11:55	564942	2.1.fun	4	6278	9
092712	11:55	564942	2.5.bomb	5	2986	2
092712	11:55	564942	1.1.ryng	6	5545	4
092712	11:55	564942	2.4.flag	7	3113	8
092712	11:55	564942	1.4.moob	8	3091	5
092712	11:55	564942	2.3.hard	9	4638	6
092712	11:55	564942	2.1.rut	10	2635	4
092712	11:55	564942	2.5.bus	11	8167	7
092712	11:55	564942	2.6.pain	12	2568	1
092712	11:55	564942	2.5.boy	13	3735	6
092712	11:55	564942	1.6.kabe	14	3008	3
092712	11:55	564942	2.5.bar	15	2158	7
092712	11:55	564942	1.2.likk	16	3062	3
092712	11:55	564942	2.6.mask	17	3345	6
092712	11:55	564942	2.1.guy	18	1746	7
092712	11:55	564942	1.2.lalo	19	1857	3
092712	11:55	564942	2.4.foam	20	5349	5
092712	11:55	564942	1.4.noof	21	2014	2
092712	11:55	564942	1.2.xad	22	2107	1
092712	11:55	564942	1.3.vabe	23	3164	1
092712	11:55	564942	1.2.zake	24	4291	3
092712	11:55	564942	2.1.fur	25	2631	5
092712	11:55	564942	2.1.thus	26	2491	5
092712	11:55	564942	2.2.slid	27	3254	6
092712	11:55	564942	2.4.moon	28	3570	8
092712	11:55	564942	1.4.toof	29	1993	1
092712	11:55	564942	2.5.arm	30	2504	5
092712	11:55	564942	1.1.gub	31	1450	4
092712	11:55	564942	2.2.slow	32	1437	4
092712	11:55	564942	2.5.non	33	3129	3
092712	11:55	564942	2.1.buy	34	2145	5
092712	11:55	564942	1.5.feg	35	1474	4
092712	11:55	564942	2.6.dark	36	4540	3
092712	11:55	564942	1.4.moof	37	1910	3
092712	11:55	564942	1.5.bih	38	2911	1
092712	11:55	564942	1.2.leel	39	1641	1
092712	11:55	564942	1.1.vuy	40	2861	4
092712	11:55	564942	2.4.tidy	41	2217	7
092712	11:55	564942	2.4.lump	42	1478	5
092712	11:55	564942	2.5.art	43	1977	7
092712	11:55	564942	2.3.name	44	2424	7
092712	11:55	564942	1.6.joi	45	2005	6
092712	11:55	564942	1.3.tage	46	2243	4
092712	11:55	564942	1.5.fuw	47	2447	4
092712	11:55	564942	1.3.yome	48	1347	4
092712	11:55	564942	1.2.dax	49	650	4
092712	11:55	564942	2.6.milk	50	1574	7
092712	11:55	564942	2.1.thy	51	2588	4
092712	11:55	564942	1.1.vun	52	1491	3
092712	11:55	564942	2.3.time	53	2557	7
092712	11:55	564942	2.6.evil	54	1661	1
092712	11:55	564942	2.6.cat	55	2312	9
092712	11:55	564942	1.1.ghun	56	2506	2
092712	11:55	564942	2.5.fat	57	2196	4
092712	11:55	564942	2.4.free	58	1849	9
092712	11:55	564942	2.3.yore	59	1709	3
092712	11:55	564942	1.4.voom	60	1567	3
092712	11:55	564942	1.5.jufe	61	1389	3
092712	11:55	564942	1.4.teef	62	2691	4
092712	11:55	564942	1.2.zeed	63	814	4
092712	11:55	564942	1.4.yoof	64	715	4
092712	11:55	564942	1.3.tove	65	731	4
092712	11:55	564942	1.3.jofe	66	2371	4
092712	11:55	564942	1.6.dofe	67	810	4
092712	11:55	564942	2.1.but	68	1920	5
092712	11:55	564942	1.3.yane	69	2321	3
092712	11:55	564942	1.5.yeb	70	954	3
092712	11:55	564942	2.2.dead	71	1393	1
092712	11:55	564942	1.6.celm	72	3271	2
092712	11:55	564942	1.1.bryg	73	1443	2
092712	11:55	564942	1.1.guf	74	839	2
092712	11:55	564942	2.2.leap	75	2187	7
092712	11:55	564942	2.3.knot	76	1577	5
092712	11:55	564942	2.3.blue	77	4104	8
092712	11:55	564942	2.3.obey	78	1866	6
092712	11:55	564942	2.6.kin	79	1357	4
092712	11:55	564942	1.2.zoke	80	1205	4
092712	11:55	564942	2.1.rug	81	1058	5
092712	11:55	564942	2.2.lop	82	1486	5
092712	11:55	564942	1.6.vook	83	1200	4
092712	11:55	564942	2.2.cell	84	2029	5
092712	11:55	564942	1.6.vape	85	2441	2
092712	11:55	564942	2.3.hate	86	1638	1
092712	11:55	564942	2.6.scar	87	2050	1
092712	11:55	564942	1.5.syg	88	1838	1
092712	11:55	564942	1.3.anay	89	1866	1
092712	11:55	564942	2.2.sick	90	757	1
092712	11:55	564942	1.1.nuv	91	1172	1
092712	11:55	564942	1.4.foob	92	1883	2
092712	11:55	564942	1.3.jafe	93	1293	3
092712	11:55	564942	2.2.sex	94	3527	5
092712	11:55	564942	2.3.star	95	3512	8
092712	11:55	564942	2.6.dog	96	1410	9
092712	11:55	564942	2.4.dump	97	4247	4
092712	11:55	564942	2.4.part	98	2756	4
092712	11:55	564942	2.6.slit	99	2092	2
092712	11:55	564942	1.6.zote	100	1670	2
092712	11:55	564942	1.6.nilo	101	1161	2
092712	11:55	564942	1.2.zape	102	2064	1
092712	11:55	564942	1.6.soog	103	780	1
092712	11:55	564942	1.3.mobe	104	4361	3
092712	11:55	564942	2.4.nude	105	1833	5
092712	11:55	564942	1.1.mur	106	1949	4
092712	11:55	564942	1.2.lale	107	613	4
092712	11:55	564942	1.3.yave	108	922	4
092712	11:55	564942	2.4.body	109	946	5
092712	11:55	564942	2.2.cake	110	1906	9
092712	11:55	564942	2.5.unit	111	3339	8
092712	11:55	564942	2.3.more	112	1556	8
092712	11:55	564942	2.1.bug	113	2212	5
092712	11:55	564942	1.4.boog	114	1409	4
092712	11:55	564942	1.5.tutk	115	1006	4
092712	11:55	564942	1.5.jaj	116	1036	3
092712	11:55	564942	1.4.yeeb	117	1000	3
092712	11:55	564942	1.5.zyr	118	717	3
092712	11:55	564942	2.2.lids	119	1774	5
092712	11:55	564942	2.5.grin	120	2852	8
100112	10:25	5	speed	1	3587	48
100112	10:25	5	error	2	2963	97
100112	10:25	5	whichhand	3	6299	right
100112	10:25	5	1.3.yane	1	8114	3
100112	10:25	5	2.5.bomb	2	4045	2
100112	10:25	5	2.4.dump	3	4665	2
100112	10:25	5	1.3.yome	4	3613	5
100112	10:25	5	2.6.mask	5	3642	6
100112	10:25	5	1.4.noof	6	2191	5
100112	10:25	5	1.6.kabe	7	2086	5
100112	10:25	5	2.4.tidy	8	2736	7
100112	10:25	5	2.4.lump	9	3049	5
100112	10:25	5	2.1.buy	10	3405	7
100112	10:25	5	1.6.celm	11	2787	5
100112	10:25	5	1.3.yave	12	4185	5
100112	10:25	5	1.1.guf	13	3256	5
100112	10:25	5	2.6.dog	14	4085	6
100112	10:25	5	1.4.boog	15	2632	6
100112	10:25	5	2.5.fat	16	2588	4
100112	10:25	5	1.2.zoke	17	2515	5
100112	10:25	5	1.4.voom	18	4084	6
100112	10:25	5	2.5.boy	19	4383	5
100112	10:25	5	2.3.knot	20	3262	4
100112	10:25	5	1.3.vabe	21	4074	6
100112	10:25	5	2.4.body	22	2045	6
100112	10:25	5	2.4.part	23	2609	5
100112	10:25	5	1.6.lim	24	5871	6
100112	10:25	5	1.3.tove	25	2403	4
100112	10:25	5	1.5.zyr	26	2465	6
100112	10:25	5	1.3.mobe	27	4668	3
100112	10:25	5	1.5.vaf	28	2120	6
100112	10:25	5	1.1.bryg	29	3337	3
100112	10:25	5	1.2.leel	30	3026	7
100112	10:25	5	1.6.zote	31	2695	6
100112	10:25	5	1.1.fryn	32	3177	3
100112	10:25	5	1.4.foob	33	2464	6
100112	10:25	5	1.2.xad	34	2179	3
100112	10:25	5	2.2.slow	35	2842	5
100112	10:25	5	2.1.rug	36	2279	4
100112	10:25	5	1.1.mur	37	2441	5
100112	10:25	5	2.5.art	38	1845	7
100112	10:25	5	2.2.cell	39	2129	7
100112	10:25	5	1.4.toof	40	1850	6
100112	10:25	5	2.6.slit	41	3245	4
100112	10:25	5	1.1.vun	42	1513	4
100112	10:25	5	1.4.moob	43	4458	3
100112	10:25	5	1.5.yeb	44	2622	7
100112	10:25	5	1.4.teef	45	1596	7
100112	10:25	5	2.4.nude	46	3569	5
100112	10:25	5	2.6.scar	47	2257	3
100112	10:25	5	2.1.guy	48	1604	5
100112	10:25	5	1.1.vuy	49	3353	5
100112	10:25	5	2.6.evil	50	4802	3
100112	10:25	5	1.4.yeeb	51	2537	7
100112	10:25	5	1.6.dofe	52	4537	5
100112	10:25	5	1.2.zake	53	1819	6
100112	10:25	5	2.2.sick	54	1480	3
100112	10:25	5	2.5.unit	55	1930	5
100112	10:25	5	1.5.jaj	56	2689	3
100112	10:25	5	2.5.grin	57	5852	7
100112	10:25	5	1.6.nilo	58	1626	6
100112	10:25	5	1.3.anay	59	1838	7
100112	10:25	5	1.4.yoof	60	1563	5
100112	10:25	5	2.1.bug	61	3042	4
100112	10:25	5	2.2.dead	62	2086	1
100112	10:25	5	1.3.jofe	63	1776	5
100112	10:25	5	2.3.obey	64	2687	3
100112	10:25	5	1.4.moof	65	1930	5
100112	10:25	5	2.3.time	66	2690	4
100112	10:25	5	2.6.cat	67	2581	8
100112	10:25	5	2.3.yore	68	2139	5
100112	10:25	5	2.4.free	69	2388	8
100112	10:25	5	2.5.bar	70	5170	6
100112	10:25	5	2.2.leap	71	1658	6
100112	10:25	5	2.2.lop	72	1622	5
100112	10:25	5	1.5.tutk	73	1931	4
100112	10:25	5	1.6.vook	74	1259	5
100112	10:25	5	1.3.jafe	75	4974	5
100112	10:25	5	1.1.nuv	76	1702	5
100112	10:25	5	2.3.name	77	4064	6
100112	10:25	5	2.3.more	78	2116	7
100112	10:25	5	2.1.thy	79	3709	5
100112	10:25	5	1.2.lalo	80	1599	6
100112	10:25	5	1.5.bih	81	3236	5
100112	10:25	5	1.5.fuw	82	2153	4
100112	10:25	5	2.4.foam	83	1321	6
100112	10:25	5	1.1.gub	84	1418	4
100112	10:25	5	1.3.tage	85	1623	6
100112	10:25	5	2.2.cake	86	1987	7
100112	10:25	5	2.6.dark	87	2562	2
100112	10:25	5	1.6.vape	88	2769	5
100112	10:25	5	2.3.hard	89	3368	4
100112	10:25	5	1.2.lale	90	2152	4
100112	10:25	5	1.2.dax	91	4391	5
100112	10:25	5	2.1.rut	92	2719	4
100112	10:25	5	1.6.joi	93	1320	6
100112	10:25	5	2.2.slid	94	3009	4
100112	10:25	5	2.5.non	95	1679	3
100112	10:25	5	1.2.likk	96	2897	5
100112	10:25	5	2.4.moon	97	2947	6
100112	10:25	5	2.3.blue	98	2515	4
100112	10:25	5	2.3.star	99	2100	8
100112	10:25	5	2.5.bus	100	2334	4
100112	10:25	5	1.6.soog	101	1974	2
100112	10:25	5	2.6.kin	102	2389	5
100112	10:25	5	1.2.zeed	103	2716	4
100112	10:25	5	2.1.but	104	2373	4
100112	10:25	5	2.4.flag	105	2676	6
100112	10:25	5	2.2.lids	106	7127	5
100112	10:25	5	2.1.fur	107	2553	6
100112	10:25	5	1.5.feg	108	1417	4
100112	10:25	5	2.1.fun	109	2550	7
100112	10:25	5	1.1.ryng	110	1662	4
100112	10:25	5	1.2.zape	111	2465	6
100112	10:25	5	1.5.jufe	112	1436	4
100112	10:25	5	2.1.thus	113	3144	5
100112	10:25	5	1.1.ghun	114	1385	5
100112	10:25	5	1.5.syg	115	1847	5
100112	10:25	5	2.6.pain	116	2218	2
100112	10:25	5	2.2.sex	117	3072	6
100112	10:25	5	2.3.hate	118	1603	2
100112	10:25	5	2.6.milk	119	1313	6
100112	10:25	5	2.5.arm	120	2353	5
100112	11:01	5678	speed	1	1773	57
100112	11:01	5678	error	2	2298	94
100112	11:01	5678	whichhand	3	11813	right
100112	11:01	5678	1.5.tutk	1	8117	5
100112	11:01	5678	2.1.thy	2	3344	7
100112	11:01	5678	1.2.zeed	3	1833	7
100112	11:01	5678	2.4.part	4	2957	5
100112	11:01	5678	1.2.zake	5	1893	5
100112	11:01	5678	2.1.bug	6	2559	6
100112	11:01	5678	2.5.fat	7	2183	3
100112	11:01	5678	2.6.slit	8	3382	6
100112	11:01	5678	1.2.dax	9	2108	6
100112	11:01	5678	1.5.feg	10	3021	4
100112	11:01	5678	2.2.dead	11	2123	2
100112	11:01	5678	1.6.vook	12	2165	6
100112	11:01	5678	1.3.tove	13	3636	7
100112	11:01	5678	2.1.rut	14	2417	4
100112	11:01	5678	1.1.mur	15	3502	3
100112	11:01	5678	1.1.nuv	16	1752	5
100112	11:01	5678	2.6.dog	17	2080	8
100112	11:01	5678	1.6.joi	18	2234	8
100112	11:01	5678	1.2.zoke	19	2070	5
100112	11:01	5678	1.4.yoof	20	2145	5
100112	11:01	5678	1.4.foob	21	2073	7
100112	11:01	5678	1.3.jafe	22	2516	8
100112	11:01	5678	1.4.yeeb	23	2261	6
100112	11:01	5678	2.6.pain	24	2265	2
100112	11:01	5678	1.2.zape	25	2020	2
100112	11:01	5678	1.2.likk	26	2409	5
100112	11:01	5678	1.3.vabe	27	2671	3
100112	11:01	5678	1.5.zyr	28	1514	5
100112	11:01	5678	1.2.lale	29	2603	6
100112	11:01	5678	2.4.tidy	30	2065	7
100112	11:01	5678	1.6.lim	31	1620	5
100112	11:01	5678	2.3.yore	32	3297	6
100112	11:01	5678	1.1.ryng	33	2803	3
100112	11:01	5678	2.4.free	34	1833	9
100112	11:01	5678	1.4.boog	35	2653	3
100112	11:01	5678	1.3.mobe	36	1673	6
100112	11:01	5678	2.6.milk	37	1836	8
100112	11:01	5678	1.5.fuw	38	1416	5
100112	11:01	5678	2.3.time	39	1597	8
100112	11:01	5678	1.3.yane	40	3115	5
100112	11:01	5678	2.4.dump	41	2052	3
100112	11:01	5678	1.5.yeb	42	3128	4
100112	11:01	5678	1.2.lalo	43	3057	6
100112	11:01	5678	1.4.moob	44	4469	6
100112	11:01	5678	1.1.gub	45	2920	6
100112	11:01	5678	1.3.yave	46	2642	5
100112	11:01	5678	1.1.ghun	47	2655	2
100112	11:01	5678	1.5.syg	48	2506	2
100112	11:01	5678	1.6.zote	49	3292	5
100112	11:01	5678	1.6.celm	50	2759	5
100112	11:01	5678	2.3.obey	51	2671	4
100112	11:01	5678	2.2.slow	52	1746	4
100112	11:01	5678	2.5.unit	53	2154	5
100112	11:01	5678	2.5.art	54	1962	9
100112	11:01	5678	2.1.fun	55	1360	9
100112	11:01	5678	1.4.toof	56	1864	6
100112	11:01	5678	2.3.name	57	1875	6
100112	11:01	5678	2.4.lump	58	1830	5
100112	11:01	5678	1.4.noof	59	2234	4
100112	11:01	5678	1.6.dofe	60	2503	4
100112	11:01	5678	1.5.jaj	61	1817	5
100112	11:01	5678	2.6.kin	62	2525	6
100112	11:01	5678	2.5.grin	63	1879	8
100112	11:01	5678	2.6.cat	64	2361	7
100112	11:01	5678	2.1.rug	65	1585	7
100112	11:01	5678	2.1.but	66	2255	5
100112	11:01	5678	2.4.body	67	2643	7
100112	11:01	5678	2.3.star	68	1343	7
100112	11:01	5678	2.2.lids	69	2479	5
100112	11:01	5678	2.2.sex	70	1642	5
100112	11:01	5678	2.2.slid	71	3102	6
100112	11:01	5678	1.1.guf	72	1544	5
100112	11:01	5678	2.3.knot	73	2456	6
100112	11:01	5678	2.5.arm	74	2444	5
100112	11:01	5678	1.1.vuy	75	2305	5
100112	11:01	5678	2.2.cell	76	1794	7
100112	11:01	5678	2.2.leap	77	1689	7
100112	11:01	5678	1.2.xad	78	1875	5
100112	11:01	5678	1.6.soog	79	1638	5
100112	11:01	5678	1.2.leel	80	2274	6
100112	11:01	5678	1.1.bryg	81	2237	4
100112	11:01	5678	2.3.more	82	1786	6
100112	11:01	5678	2.4.foam	83	1608	6
100112	11:01	5678	2.1.fur	84	2653	7
100112	11:01	5678	1.6.kabe	85	1673	5
100112	11:01	5678	2.1.thus	86	2372	5
100112	11:01	5678	2.1.guy	87	1892	5
100112	11:01	5678	1.1.fryn	88	2574	6
100112	11:01	5678	1.3.tage	89	1373	5
100112	11:01	5678	1.4.teef	90	4107	6
100112	11:01	5678	2.3.hate	91	2966	1
100112	11:01	5678	2.2.cake	92	1909	9
100112	11:01	5678	1.3.anay	93	1951	5
100112	11:01	5678	2.6.mask	94	1567	7
100112	11:01	5678	2.5.bus	95	2581	7
100112	11:01	5678	2.4.moon	96	1564	8
100112	11:01	5678	2.5.bomb	97	2691	1
100112	11:01	5678	2.3.hard	98	1949	4
100112	11:01	5678	2.2.lop	99	2317	6
100112	11:01	5678	2.5.boy	100	1526	5
100112	11:01	5678	2.5.non	101	2015	5
100112	11:01	5678	1.6.vape	102	2732	4
100112	11:01	5678	1.5.vaf	103	1709	5
100112	11:01	5678	2.1.buy	104	1862	7
100112	11:01	5678	1.5.bih	105	1722	5
100112	11:01	5678	1.1.vun	106	2434	5
100112	11:01	5678	2.2.sick	107	1727	3
100112	11:01	5678	1.4.voom	108	2120	6
100112	11:01	5678	2.3.blue	109	1913	9
100112	11:01	5678	1.3.yome	110	2634	6
100112	11:01	5678	1.5.jufe	111	3190	6
100112	11:01	5678	2.6.evil	112	1733	1
100112	11:01	5678	1.4.moof	113	2693	5
100112	11:01	5678	2.4.nude	114	2344	4
100112	11:01	5678	2.4.flag	115	1584	6
100112	11:01	5678	2.6.dark	116	2150	4
100112	11:01	5678	2.6.scar	117	1862	4
100112	11:01	5678	1.3.jofe	118	1617	5
100112	11:01	5678	1.6.nilo	119	2862	6
100112	11:01	5678	2.5.bar	120	3177	6
100112	12:27	54	speed	1	4765	33
100112	12:27	54	error	2	3276	96
100112	12:27	54	whichhand	3	5808	right
100112	12:27	54	2.5.boy	1	8295	9
100112	12:27	54	1.4.yoof	2	5354	5
100112	12:27	54	1.6.vook	3	5515	5
100112	12:27	54	1.3.tage	4	3766	5
100112	12:27	54	2.1.fun	5	2365	9
100112	12:27	54	1.5.fuw	6	2852	5
100112	12:27	54	2.2.cell	7	5264	5
100112	12:27	54	1.1.vuy	8	7620	5
100112	12:27	54	1.1.fryn	9	1851	5
100112	12:27	54	1.2.xad	10	1471	5
100112	12:27	54	2.1.bug	11	3178	6
100112	12:27	54	2.5.grin	12	2289	9
100112	12:27	54	2.1.rut	13	2547	4
100112	12:27	54	2.3.name	14	3612	9
100112	12:27	54	2.5.art	15	2001	9
100112	12:27	54	1.2.lalo	16	1423	5
100112	12:27	54	2.3.yore	17	3675	2
100112	12:27	54	2.5.bomb	18	1767	1
100112	12:27	54	1.5.syg	19	1958	5
100112	12:27	54	1.1.mur	20	981	5
100112	12:27	54	1.6.zote	21	1124	5
100112	12:27	54	2.1.rug	22	1612	5
100112	12:27	54	2.1.buy	23	2169	5
100112	12:27	54	2.4.body	24	2784	5
100112	12:27	54	2.3.more	25	2519	5
100112	12:27	54	2.6.pain	26	1840	1
100112	12:27	54	1.1.bryg	27	1429	5
100112	12:27	54	2.6.scar	28	3001	5
100112	12:27	54	1.6.celm	29	1814	5
100112	12:27	54	1.5.zyr	30	1123	5
100112	12:27	54	1.1.vun	31	996	5
100112	12:27	54	2.5.arm	32	2625	6
100112	12:27	54	2.3.star	33	2639	6
100112	12:27	54	2.6.dark	34	2699	6
100112	12:27	54	1.5.bih	35	1165	5
100112	12:27	54	1.5.tutk	36	2028	5
100112	12:27	54	1.3.vabe	37	1537	5
100112	12:27	54	1.3.jofe	38	1393	5
100112	12:27	54	1.2.zake	39	1695	5
100112	12:27	54	2.2.sex	40	2561	9
100112	12:27	54	2.5.unit	41	2129	6
100112	12:27	54	2.6.slit	42	3865	5
100112	12:27	54	2.6.milk	43	2037	8
100112	12:27	54	2.3.hard	44	4009	5
100112	12:27	54	2.3.blue	45	1400	5
100112	12:27	54	2.1.thus	46	1541	5
100112	12:27	54	2.2.lids	47	2245	5
100112	12:27	54	1.4.foob	48	1577	5
100112	12:27	54	1.3.mobe	49	1159	5
100112	12:27	54	1.2.zape	50	1263	5
100112	12:27	54	2.4.dump	51	3857	5
100112	12:27	54	1.6.soog	52	1142	5
100112	12:27	54	1.4.yeeb	53	1030	5
100112	12:27	54	1.5.yeb	54	954	5
100112	12:27	54	2.1.fur	55	2538	6
100112	12:27	54	2.5.bar	56	2426	6
100112	12:27	54	1.3.yome	57	1207	5
100112	12:27	54	1.4.boog	58	1109	5
100112	12:27	54	1.4.moob	59	1190	5
100112	12:27	54	1.6.joi	60	1196	5
100112	12:27	54	2.4.lump	61	1057	5
100112	12:27	54	2.2.slid	62	2549	5
100112	12:27	54	2.4.free	63	3477	8
100112	12:27	54	2.2.dead	64	2680	1
100112	12:27	54	1.2.leel	65	1395	5
100112	12:27	54	1.1.ghun	66	1297	5
100112	12:27	54	2.5.non	67	1506	5
100112	12:27	54	2.4.tidy	68	2396	8
100112	12:27	54	2.6.kin	69	2770	7
100112	12:27	54	1.1.guf	70	1105	5
100112	12:27	54	1.3.yane	71	858	5
100112	12:27	54	1.6.dofe	72	1430	5
100112	12:27	54	1.1.gub	73	978	5
100112	12:27	54	1.4.moof	74	1328	5
100112	12:27	54	1.4.teef	75	960	5
100112	12:27	54	2.4.part	76	1751	5
100112	12:27	54	1.2.zeed	77	1175	5
100112	12:27	54	1.2.lale	78	1054	5
100112	12:27	54	1.6.kabe	79	1442	5
100112	12:27	54	1.3.tove	80	1838	5
100112	12:27	54	2.6.dog	81	2754	8
100112	12:27	54	2.2.leap	82	3186	6
100112	12:27	54	2.5.fat	83	1801	2
100112	12:27	54	1.5.jufe	84	1214	5
100112	12:27	54	1.6.nilo	85	1347	5
100112	12:27	54	2.4.moon	86	2347	8
100112	12:27	54	2.4.flag	87	3266	8
100112	12:27	54	2.3.knot	88	3550	6
100112	12:27	54	1.3.anay	89	1502	5
100112	12:27	54	1.6.lim	90	1335	5
100112	12:27	54	2.3.hate	91	5536	1
100112	12:27	54	1.2.zoke	92	1977	5
100112	12:27	54	2.3.time	93	1200	5
100112	12:27	54	2.3.obey	94	2757	5
100112	12:27	54	1.5.feg	95	1310	5
100112	12:27	54	2.4.nude	96	4959	2
100112	12:27	54	2.6.cat	97	4816	4
100112	12:27	54	1.5.jaj	98	1342	5
100112	12:27	54	1.4.toof	99	1334	5
100112	12:27	54	1.4.noof	100	958	5
100112	12:27	54	1.2.dax	101	1029	5
100112	12:27	54	1.1.nuv	102	849	5
100112	12:27	54	1.4.voom	103	612	5
100112	12:27	54	2.6.evil	104	2793	1
100112	12:27	54	2.6.mask	105	1943	1
100112	12:27	54	2.2.cake	106	1696	6
100112	12:27	54	1.1.ryng	107	1561	5
100112	12:27	54	2.2.lop	108	905	5
100112	12:27	54	1.3.yave	109	1138	5
100112	12:27	54	2.4.foam	110	1978	5
100112	12:27	54	2.1.guy	111	2201	6
100112	12:27	54	1.5.vaf	112	1046	5
100112	12:27	54	2.1.but	113	1578	5
100112	12:27	54	2.2.slow	114	1201	5
100112	12:27	54	2.2.sick	115	1118	5
100112	12:27	54	1.3.jafe	116	879	5
100112	12:27	54	1.6.vape	117	681	5
100112	12:27	54	2.1.thy	118	747	5
100112	12:27	54	2.5.bus	119	842	5
100112	12:27	54	1.2.likk	120	1206	5
100212	09:00	5	speed	1	1959	40
100212	09:00	5	error	2	4322	95
100212	09:00	5	whichhand	3	6100	RIGHT
100212	09:00	5	2.6.pain	1	1873	1
100212	09:00	5	1.2.zake	2	1684	5
100212	09:00	5	1.6.celm	3	687	5
100212	09:00	5	2.1.thy	4	3480	6
100212	09:00	5	2.5.bus	5	3331	6
100212	09:00	5	1.5.bih	6	1652	5
100212	09:00	5	2.1.fun	7	2088	8
100212	09:00	5	2.2.leap	8	2290	7
100212	09:00	5	2.4.free	9	1404	9
100212	09:00	5	2.1.but	10	3002	4
100212	09:00	5	2.6.dark	11	1264	1
100212	09:00	5	1.6.kabe	12	1147	5
100212	09:00	5	2.4.part	13	3386	6
100212	09:00	5	2.4.lump	14	3289	3
100212	09:00	5	1.1.mur	15	1083	5
100212	09:00	5	1.4.voom	16	990	5
100212	09:00	5	2.6.evil	17	1140	1
100212	09:00	5	1.4.boog	18	1508	5
100212	09:00	5	2.4.dump	19	5277	3
100212	09:00	5	1.1.vun	20	1425	5
100212	09:00	5	1.5.syg	21	677	5
100212	09:00	5	1.6.vook	22	496	5
100212	09:00	5	1.3.yave	23	666	5
100212	09:00	5	1.2.likk	24	660	5
100212	09:00	5	1.6.zote	25	719	5
100212	09:00	5	2.4.moon	26	1416	9
100212	09:00	5	1.6.vape	27	2541	5
100212	09:00	5	2.6.mask	28	4613	4
100212	09:00	5	1.1.bryg	29	939	5
100212	09:00	5	2.5.bomb	30	2507	1
100212	09:00	5	2.6.kin	31	2117	9
100212	09:00	5	2.5.boy	32	2238	7
100212	09:00	5	1.3.jofe	33	1778	5
100212	09:00	5	2.2.slid	34	3489	6
100212	09:00	5	1.1.gub	35	1003	5
100212	09:00	5	2.2.cell	36	4376	4
100212	09:00	5	1.2.zoke	37	2696	6
100212	09:00	5	1.4.toof	38	1962	6
100212	09:00	5	2.2.dead	39	1745	1
100212	09:00	5	1.2.leel	40	1081	5
100212	09:00	5	2.2.lop	41	1267	5
100212	09:00	5	2.5.bar	42	3894	6
100212	09:00	5	1.5.zyr	43	993	5
100212	09:00	5	1.5.tutk	44	1679	5
100212	09:00	5	1.4.moof	45	1449	6
100212	09:00	5	1.1.nuv	46	2276	5
100212	09:00	5	2.2.cake	47	2319	9
100212	09:00	5	1.2.zeed	48	1160	5
100212	09:00	5	1.3.jafe	49	856	5
100212	09:00	5	2.5.non	50	611	5
100212	09:00	5	2.4.tidy	51	1912	8
100212	09:00	5	1.4.noof	52	969	5
100212	09:00	5	2.3.name	53	2592	6
100212	09:00	5	2.4.foam	54	2279	6
100212	09:00	5	1.3.tage	55	2433	5
100212	09:00	5	2.6.scar	56	2926	1
100212	09:00	5	2.5.arm	57	1303	1
100212	09:00	5	2.1.buy	58	1880	9
100212	09:00	5	1.1.ryng	59	1099	5
100212	09:00	5	2.3.more	60	2716	4
100212	09:00	5	2.1.rug	61	1829	6
100212	09:00	5	2.4.flag	62	2033	8
100212	09:00	5	2.6.cat	63	1982	4
100212	09:00	5	1.6.nilo	64	1044	5
100212	09:00	5	1.3.yane	65	632	5
100212	09:00	5	1.1.guf	66	580	5
100212	09:00	5	1.3.anay	67	602	5
100212	09:00	5	2.1.guy	68	2303	9
100212	09:00	5	2.2.lids	69	2057	5
100212	09:00	5	2.3.time	70	2637	4
100212	09:00	5	2.1.thus	71	2312	4
100212	09:00	5	1.2.zape	72	2611	6
100212	09:00	5	1.6.soog	73	1736	5
100212	09:00	5	2.3.obey	74	2088	1
100212	09:00	5	1.1.fryn	75	875	5
100212	09:00	5	1.2.xad	76	862	5
100212	09:00	5	1.3.mobe	77	689	5
100212	09:00	5	2.3.hate	78	923	1
100212	09:00	5	2.3.blue	79	2492	8
100212	09:00	5	2.4.nude	80	2214	6
100212	09:00	5	2.5.unit	81	4059	5
100212	09:00	5	2.3.hard	82	2543	1
100212	09:00	5	1.4.yeeb	83	1096	5
100212	09:00	5	2.6.slit	84	897	1
100212	09:00	5	1.4.teef	85	875	5
100212	09:00	5	2.1.rut	86	2061	1
100212	09:00	5	2.3.star	87	1921	9
100212	09:00	5	1.1.vuy	88	810	5
100212	09:00	5	1.5.vaf	89	607	5
100212	09:00	5	1.2.lalo	90	516	5
100212	09:00	5	2.2.slow	91	1541	1
100212	09:00	5	1.1.ghun	92	1325	1
100212	09:00	5	1.6.joi	93	1350	8
100212	09:00	5	1.5.jufe	94	1981	5
100212	09:00	5	2.5.art	95	1884	4
100212	09:00	5	1.6.dofe	96	918	5
100212	09:00	5	1.3.tove	97	703	5
100212	09:00	5	2.6.dog	98	2608	3
100212	09:00	5	2.1.bug	99	1270	1
100212	09:00	5	1.4.moob	100	1784	5
100212	09:00	5	1.5.feg	101	1423	5
100212	09:00	5	1.5.yeb	102	844	5
100212	09:00	5	1.5.fuw	103	847	5
100212	09:00	5	1.3.yome	104	827	5
100212	09:00	5	1.6.lim	105	1175	5
100212	09:00	5	1.5.jaj	106	1182	5
100212	09:00	5	1.2.lale	107	924	5
100212	09:00	5	2.6.milk	108	2204	6
100212	09:00	5	1.4.foob	109	1027	5
100212	09:00	5	2.2.sex	110	4279	5
100212	09:00	5	1.2.dax	111	890	5
100212	09:00	5	1.4.yoof	112	597	5
100212	09:00	5	2.2.sick	113	2570	2
100212	09:00	5	2.1.fur	114	3617	5
100212	09:00	5	2.3.knot	115	2430	9
100212	09:00	5	2.4.body	116	2123	8
100212	09:00	5	2.5.fat	117	1660	1
100212	09:00	5	2.3.yore	118	823	5
100212	09:00	5	1.3.vabe	119	972	5
100212	09:00	5	2.5.grin	120	1979	9
100312	09:34	5	speed	1	2495	45
100312	09:34	5	error	2	2498	93
100312	09:34	5	whichhand	3	6036	right
100312	09:34	5	2.1.rug	1	5561	6
100312	09:34	5	2.4.body	2	3994	6
100312	09:34	5	2.2.sex	3	2529	5
100312	09:34	5	2.5.fat	4	1617	5
100312	09:34	5	2.6.dog	5	2174	8
100312	09:34	5	1.6.vape	6	3877	4
100312	09:34	5	1.4.yeeb	7	1897	4
100312	09:34	5	1.3.jofe	8	3042	6
100312	09:34	5	2.4.nude	9	3815	5
100312	09:34	5	2.3.blue	10	3317	7
100312	09:34	5	1.5.tutk	11	2030	5
100312	09:34	5	2.5.bomb	12	5042	3
100312	09:34	5	2.1.but	13	3952	4
100312	09:34	5	1.1.bryg	14	4096	6
100312	09:34	5	2.4.tidy	15	2499	7
100312	09:34	5	1.2.likk	16	2876	5
100312	09:34	5	2.4.free	17	3608	8
100312	09:34	5	1.6.kabe	18	4070	6
100312	09:34	5	1.5.zyr	19	2921	6
100312	09:34	5	1.6.joi	20	1779	6
100312	09:34	5	2.2.lids	21	2833	6
100312	09:34	5	1.2.lalo	22	2094	5
100312	09:34	5	2.6.dark	23	9432	4
100312	09:34	5	1.1.vun	24	2519	5
100312	09:34	5	2.3.more	25	6352	6
100312	09:34	5	1.4.teef	26	1977	5
100312	09:34	5	1.1.mur	27	4400	6
100312	09:34	5	1.2.zoke	28	1519	5
100312	09:34	5	1.4.boog	29	3935	5
100312	09:34	5	1.2.dax	30	12216	6
100312	09:34	5	1.3.mobe	31	1481	6
100312	09:34	5	1.1.nuv	32	1427	4
100312	09:34	5	2.6.mask	33	3472	6
100312	09:34	5	2.5.bus	34	2467	5
100312	09:34	5	1.2.leel	35	2598	5
100312	09:34	5	2.3.obey	36	4100	7
100312	09:34	5	2.4.lump	37	2271	4
100312	09:34	5	1.6.nilo	38	2770	5
100312	09:34	5	2.2.slid	39	2345	4
100312	09:34	5	1.1.gub	40	1777	5
100312	09:34	5	2.1.buy	41	1496	6
100312	09:34	5	2.1.fur	42	2353	6
100312	09:34	5	2.1.bug	43	6241	3
100312	09:34	5	2.2.sick	44	1479	3
100312	09:34	5	2.3.yore	45	2049	5
100312	09:34	5	1.2.zape	46	1133	5
100312	09:34	5	2.2.lop	47	3869	6
100312	09:34	5	2.6.scar	48	4552	4
100312	09:34	5	1.5.vaf	49	4089	4
100312	09:34	5	2.6.kin	50	4364	8
100312	09:34	5	1.5.yeb	51	1556	5
100312	09:34	5	2.2.slow	52	5387	5
100312	09:34	5	2.6.slit	53	4331	5
100312	09:34	5	1.1.ryng	54	3476	5
100312	09:34	5	2.1.thy	55	2583	6
100312	09:34	5	1.4.voom	56	1590	6
100312	09:34	5	2.3.time	57	1508	4
100312	09:34	5	2.6.evil	58	11653	1
100312	09:34	5	2.1.thus	59	6108	6
100312	09:34	5	1.4.yoof	60	1775	5
100312	09:34	5	2.3.knot	61	6197	6
100312	09:34	5	2.5.boy	62	4781	7
100312	09:34	5	1.1.fryn	63	3445	6
100312	09:34	5	1.6.vook	64	1545	5
100312	09:34	5	1.6.dofe	65	1977	6
100312	09:34	5	2.1.rut	66	1704	4
100312	09:34	5	1.5.bih	67	1482	5
100312	09:34	5	2.4.moon	68	3164	6
100312	09:34	5	1.1.guf	69	7011	5
100312	09:34	5	2.4.part	70	5465	5
100312	09:34	5	2.2.cell	71	3526	6
100312	09:34	5	1.2.xad	72	3231	5
100312	09:34	5	2.1.fun	73	2580	8
100312	09:34	5	1.4.foob	74	2138	6
100312	09:34	5	2.3.hard	75	9499	5
100312	09:34	5	1.4.moof	76	3143	5
100312	09:34	5	1.2.lale	77	1312	5
100312	09:34	5	1.3.vabe	78	1657	5
100312	09:34	5	1.3.jafe	79	1652	6
100312	09:34	5	2.1.guy	80	4136	7
100312	09:34	5	2.5.bar	81	4825	5
100312	09:34	5	2.4.foam	82	4463	6
100312	09:34	5	1.3.yome	83	7002	5
100312	09:34	5	2.5.unit	84	2250	6
100312	09:34	5	2.3.star	85	4062	7
100312	09:34	5	2.3.hate	86	2209	3
100312	09:34	5	2.2.cake	87	2535	8
100312	09:34	5	1.5.syg	88	3247	4
100312	09:34	5	2.5.arm	89	1356	6
100312	09:34	5	1.4.noof	90	1043	5
100312	09:34	5	2.6.cat	91	1943	6
100312	09:34	5	2.2.dead	92	2487	3
100312	09:34	5	2.2.leap	93	1810	6
100312	09:34	5	1.6.celm	94	1080	5
100312	09:34	5	2.5.non	95	1858	4
100312	09:34	5	1.4.toof	96	1149	5
100312	09:34	5	1.3.tage	97	805	5
100312	09:34	5	1.5.fuw	98	2314	5
100312	09:34	5	1.1.vuy	99	1170	5
100312	09:34	5	1.3.tove	100	3322	6
100312	09:34	5	1.6.soog	101	2339	5
100312	09:34	5	1.4.moob	102	1868	5
100312	09:34	5	2.6.milk	103	2807	8
100312	09:34	5	1.6.zote	104	3524	5
100312	09:34	5	2.5.art	105	1238	6
100312	09:34	5	1.3.yave	106	1210	5
100312	09:34	5	2.5.grin	107	2839	7
100312	09:34	5	1.1.ghun	108	3644	4
100312	09:34	5	1.2.zake	109	7272	6
100312	09:34	5	2.3.name	110	6349	6
100312	09:34	5	1.5.feg	111	8654	6
100312	09:34	5	1.3.yane	112	4500	5
100312	09:34	5	2.4.dump	113	1839	5
100312	09:34	5	2.4.flag	114	2579	6
100312	09:34	5	1.3.anay	115	2209	5
100312	09:34	5	2.6.pain	116	1359	4
100312	09:34	5	1.2.zeed	117	4047	4
100312	09:34	5	1.6.lim	118	1971	5
100312	09:34	5	1.5.jaj	119	810	5
100312	09:34	5	1.5.jufe	120	1655	6
100312	10:07	6	speed	1	3043	47
100312	10:07	6	error	2	2032	97
100312	10:07	6	whichhand	3	8989	right
100312	10:07	6	2.3.blue	1	8099	8
100312	10:07	6	1.5.tutk	2	3759	1
100312	10:07	6	2.6.dark	3	3623	5
100312	10:07	6	2.5.boy	4	2652	7
100312	10:07	6	1.5.jaj	5	5352	2
100312	10:07	6	1.2.zoke	6	4257	2
100312	10:07	6	1.2.xad	7	2806	1
100312	10:07	6	2.5.arm	8	3227	6
100312	10:07	6	1.2.lale	9	2681	7
100312	10:07	6	1.2.zeed	10	2707	2
100312	10:07	6	1.2.dax	11	2373	1
100312	10:07	6	2.5.art	12	2613	8
100312	10:07	6	2.4.moon	13	2602	8
100312	10:07	6	2.1.guy	14	2567	4
100312	10:07	6	2.4.foam	15	2143	7
100312	10:07	6	1.5.zyr	16	1695	1
100312	10:07	6	2.5.unit	17	1873	2
100312	10:07	6	1.6.vook	18	1292	1
100312	10:07	6	2.6.mask	19	2230	6
100312	10:07	6	2.5.grin	20	2218	7
100312	10:07	6	2.1.thy	21	2415	5
100312	10:07	6	1.4.noof	22	2684	3
100312	10:07	6	2.1.buy	23	2519	8
100312	10:07	6	2.3.star	24	1904	8
100312	10:07	6	1.2.leel	25	2642	6
100312	10:07	6	2.1.bug	26	2926	1
100312	10:07	6	1.1.ryng	27	3264	2
100312	10:07	6	2.1.but	28	3107	5
100312	10:07	6	1.5.syg	29	2453	1
100312	10:07	6	2.2.sex	30	2801	5
100312	10:07	6	2.3.obey	31	2287	1
100312	10:07	6	2.4.lump	32	1753	1
100312	10:07	6	2.1.fun	33	1977	8
100312	10:07	6	2.4.nude	34	3304	6
100312	10:07	6	2.1.fur	35	1442	6
100312	10:07	6	1.4.moob	36	1446	1
100312	10:07	6	2.4.dump	37	1650	1
100312	10:07	6	1.1.gub	38	1421	1
100312	10:07	6	1.5.bih	39	1754	1
100312	10:07	6	1.3.tove	40	1042	1
100312	10:07	6	1.4.yeeb	41	1062	1
100312	10:07	6	1.6.dofe	42	1441	1
100312	10:07	6	1.3.vabe	43	1701	2
100312	10:07	6	2.1.thus	44	2463	4
100312	10:07	6	1.2.zake	45	2042	1
100312	10:07	6	1.6.zote	46	1254	1
100312	10:07	6	2.4.tidy	47	3066	6
100312	10:07	6	1.3.jafe	48	1757	2
100312	10:07	6	2.6.scar	49	1949	2
100312	10:07	6	1.1.ghun	50	1612	1
100312	10:07	6	2.5.bar	51	2225	8
100312	10:07	6	1.3.mobe	52	1486	1
100312	10:07	6	1.6.kabe	53	1529	1
100312	10:07	6	1.6.celm	54	1441	1
100312	10:07	6	1.1.nuv	55	1525	1
100312	10:07	6	2.1.rug	56	2758	6
100312	10:07	6	1.6.joi	57	1774	2
100312	10:07	6	1.4.yoof	58	1668	1
100312	10:07	6	2.2.cake	59	1919	8
100312	10:07	6	2.4.flag	60	1880	8
100312	10:07	6	2.1.rut	61	2331	6
100312	10:07	6	2.3.time	62	1675	6
100312	10:07	6	1.5.jufe	63	1494	1
100312	10:07	6	1.6.nilo	64	1216	1
100312	10:07	6	1.1.vun	65	1261	1
100312	10:07	6	2.6.cat	66	1824	6
100312	10:07	6	1.4.moof	67	1333	1
100312	10:07	6	2.3.more	68	3109	3
100312	10:07	6	1.2.lalo	69	1272	1
100312	10:07	6	2.6.kin	70	2130	1
100312	10:07	6	2.5.non	71	1931	3
100312	10:07	6	2.2.lop	72	1499	1
100312	10:07	6	2.6.evil	73	1980	1
100312	10:07	6	1.4.boog	74	1259	1
100312	10:07	6	2.2.slid	75	1711	7
100312	10:07	6	2.6.pain	76	1568	7
100312	10:07	6	1.1.guf	77	1479	1
100312	10:07	6	1.1.bryg	78	1185	1
100312	10:07	6	1.1.mur	79	1223	1
100312	10:07	6	1.5.feg	80	1324	1
100312	10:07	6	1.1.fryn	81	1189	1
100312	10:07	6	1.3.yome	82	971	1
100312	10:07	6	2.5.bus	83	1361	7
100312	10:07	6	2.3.yore	84	1504	6
100312	10:07	6	2.6.dog	85	1458	8
100312	10:07	6	1.3.jofe	86	2214	1
100312	10:07	6	1.5.vaf	87	1067	1
100312	10:07	6	1.3.anay	88	1182	1
100312	10:07	6	2.2.dead	89	1980	6
100312	10:07	6	1.6.soog	90	1186	1
100312	10:07	6	1.4.teef	91	1072	1
100312	10:07	6	2.4.body	92	1731	7
100312	10:07	6	1.4.voom	93	2731	8
100312	10:07	6	2.2.cell	94	1364	8
100312	10:07	6	1.6.vape	95	1570	8
100312	10:07	6	2.6.slit	96	1641	8
100312	10:07	6	2.2.sick	97	1590	7
100312	10:07	6	1.3.yave	98	1140	1
100312	10:07	6	2.3.hate	99	1564	6
100312	10:07	6	2.2.lids	100	1459	8
100312	10:07	6	2.2.slow	101	3302	5
100312	10:07	6	2.4.free	102	3272	8
100312	10:07	6	1.3.yane	103	1556	8
100312	10:07	6	1.6.lim	104	1571	8
100312	10:07	6	1.2.zape	105	1186	1
100312	10:07	6	1.4.foob	106	1104	1
100312	10:07	6	1.1.vuy	107	1153	1
100312	10:07	6	1.5.fuw	108	1137	3
100312	10:07	6	1.5.yeb	109	1201	1
100312	10:07	6	1.4.toof	110	966	1
100312	10:07	6	2.4.part	111	1317	8
100312	10:07	6	2.6.milk	112	1350	8
100312	10:07	6	1.3.tage	113	1301	7
100312	10:07	6	2.5.bomb	114	1415	8
100312	10:07	6	1.2.likk	115	1203	1
100312	10:07	6	2.2.leap	116	1417	8
100312	10:07	6	2.3.knot	117	1486	7
100312	10:07	6	2.3.hard	118	1432	6
100312	10:07	6	2.3.name	119	1700	8
100312	10:07	6	2.5.fat	120	1862	3
100312	10:54	34567	speed	1	2377	41
100312	10:54	34567	error	2	2057	97
100312	10:54	34567	whichhand	3	13365	right
100312	10:54	34567	2.4.nude	1	13284	5
100312	10:54	34567	2.2.sex	2	2947	7
100312	10:54	34567	1.3.tove	3	2867	5
100312	10:54	34567	2.4.lump	4	2510	1
100312	10:54	34567	2.6.mask	5	4976	4
100312	10:54	34567	2.3.obey	6	2864	5
100312	10:54	34567	1.4.teef	7	2803	2
100312	10:54	34567	1.6.lim	8	2553	5
100312	10:54	34567	1.5.jaj	9	1809	5
100312	10:54	34567	1.4.voom	10	1903	6
100312	10:54	34567	2.2.lids	11	4376	5
100312	10:54	34567	1.3.jafe	12	2456	7
100312	10:54	34567	1.5.syg	13	1900	6
100312	10:54	34567	2.1.guy	14	4990	8
100312	10:54	34567	1.6.vook	15	1349	7
100312	10:54	34567	1.2.zape	16	1380	7
100312	10:54	34567	2.5.bar	17	2026	6
100312	10:54	34567	2.6.evil	18	1920	1
100312	10:54	34567	2.4.tidy	19	2280	9
100312	10:54	34567	2.2.sick	20	2019	1
100312	10:54	34567	1.5.jufe	21	2048	6
100312	10:54	34567	2.6.slit	22	2068	3
100312	10:54	34567	2.5.unit	23	2575	6
100312	10:54	34567	1.3.yave	24	3206	6
100312	10:54	34567	1.2.leel	25	1892	6
100312	10:54	34567	1.2.zake	26	1262	6
100312	10:54	34567	1.4.moob	27	1921	7
100312	10:54	34567	1.5.feg	28	1978	4
100312	10:54	34567	1.6.nilo	29	1968	8
100312	10:54	34567	1.6.joi	30	1791	6
100312	10:54	34567	2.2.slid	31	1550	6
100312	10:54	34567	1.1.mur	32	3076	6
100312	10:54	34567	1.5.zyr	33	1873	6
100312	10:54	34567	2.3.knot	34	2436	4
100312	10:54	34567	1.5.fuw	35	1632	6
100312	10:54	34567	2.2.slow	36	2420	5
100312	10:54	34567	1.2.zoke	37	2937	6
100312	10:54	34567	2.4.part	38	4570	6
100312	10:54	34567	2.1.thus	39	2530	5
100312	10:54	34567	1.1.nuv	40	2546	7
100312	10:54	34567	2.3.blue	41	2994	8
100312	10:54	34567	2.1.but	42	4833	4
100312	10:54	34567	1.4.noof	43	1782	7
100312	10:54	34567	1.4.boog	44	1197	7
100312	10:54	34567	1.3.yane	45	1690	6
100312	10:54	34567	1.3.anay	46	3140	3
100312	10:54	34567	1.3.yome	47	1525	5
100312	10:54	34567	1.6.zote	48	3238	6
100312	10:54	34567	2.5.arm	49	1858	6
100312	10:54	34567	2.4.foam	50	3734	3
100312	10:54	34567	1.2.dax	51	2023	7
100312	10:54	34567	2.1.rut	52	2180	1
100312	10:54	34567	1.1.vun	53	2682	5
100312	10:54	34567	2.4.free	54	2101	9
100312	10:54	34567	1.1.ryng	55	3991	3
100312	10:54	34567	1.2.zeed	56	3126	4
100312	10:54	34567	1.6.vape	57	3255	5
100312	10:54	34567	2.5.bomb	58	4043	1
100312	10:54	34567	1.3.jofe	59	2808	2
100312	10:54	34567	1.3.tage	60	2134	2
100312	10:54	34567	2.2.cell	61	1862	3
100312	10:54	34567	2.1.buy	62	2153	5
100312	10:54	34567	2.5.non	63	3081	2
100312	10:54	34567	2.3.hard	64	2500	5
100312	10:54	34567	1.5.yeb	65	1718	3
100312	10:54	34567	2.3.star	66	2023	7
100312	10:54	34567	1.4.foob	67	2508	5
100312	10:54	34567	2.2.dead	68	2278	5
100312	10:54	34567	1.6.soog	69	2121	4
100312	10:54	34567	2.6.scar	70	5690	2
100312	10:54	34567	2.5.bus	71	1789	5
100312	10:54	34567	2.6.pain	72	2580	1
100312	10:54	34567	1.4.yeeb	73	2010	3
100312	10:54	34567	1.5.vaf	74	1472	5
100312	10:54	34567	2.5.fat	75	2083	1
100312	10:54	34567	2.3.time	76	1325	5
100312	10:54	34567	2.6.milk	77	1526	6
100312	10:54	34567	2.6.kin	78	2638	7
100312	10:54	34567	2.1.fun	79	2003	9
100312	10:54	34567	2.6.dark	80	1561	6
100312	10:54	34567	2.4.body	81	2672	7
100312	10:54	34567	2.5.art	82	1628	7
100312	10:54	34567	1.2.lale	83	2736	5
100312	10:54	34567	1.2.xad	84	1657	1
100312	10:54	34567	1.4.yoof	85	3733	5
100312	10:54	34567	1.6.celm	86	2246	4
100312	10:54	34567	1.2.likk	87	2217	6
100312	10:54	34567	1.3.vabe	88	1638	6
100312	10:54	34567	1.1.guf	89	2234	1
100312	10:54	34567	2.3.yore	90	3079	7
100312	10:54	34567	1.4.toof	91	1938	6
100312	10:54	34567	2.3.more	92	1506	6
100312	10:54	34567	2.4.dump	93	1996	1
100312	10:54	34567	1.6.dofe	94	2065	5
100312	10:54	34567	2.3.hate	95	2124	1
100312	10:54	34567	1.3.mobe	96	2293	5
100312	10:54	34567	2.2.cake	97	1696	9
100312	10:54	34567	1.1.gub	98	1945	4
100312	10:54	34567	2.5.boy	99	3137	6
100312	10:54	34567	2.4.flag	100	1898	9
100312	10:54	34567	2.1.fur	101	2979	6
100312	10:54	34567	1.5.bih	102	1898	1
100312	10:54	34567	2.1.thy	103	1724	5
100312	10:54	34567	2.6.dog	104	3988	4
100312	10:54	34567	1.1.ghun	105	2003	6
100312	10:54	34567	1.4.moof	106	1665	6
100312	10:54	34567	2.2.leap	107	1596	7
100312	10:54	34567	2.4.moon	108	2114	8
100312	10:54	34567	2.2.lop	109	1995	3
100312	10:54	34567	2.1.rug	110	1713	2
100312	10:54	34567	1.1.vuy	111	1586	1
100312	10:54	34567	1.2.lalo	112	1656	6
100312	10:54	34567	1.6.kabe	113	2124	5
100312	10:54	34567	2.1.bug	114	1533	5
100312	10:54	34567	1.5.tutk	115	1845	1
100312	10:54	34567	2.5.grin	116	1785	9
100312	10:54	34567	2.6.cat	117	1911	2
100312	10:54	34567	1.1.fryn	118	3625	5
100312	10:54	34567	2.3.name	119	2134	6
100312	10:54	34567	1.1.bryg	120	3022	4
100312	11:52	345	speed	1	2715	83
100312	11:52	345	error	2	2021	97
100312	11:52	345	whichhand	3	35498	Right
100312	11:52	345	2.6.dog	1	13427	4
100312	11:52	345	2.5.fat	2	4620	1
100312	11:52	345	1.5.jaj	3	2802	6
100312	11:52	345	1.2.zape	4	4464	9
100312	11:52	345	1.5.syg	5	4084	5
100312	11:52	345	1.1.vuy	6	4047	6
100312	11:52	345	1.2.dax	7	3203	8
100312	11:52	345	2.1.rug	8	3249	8
100312	11:52	345	2.3.hard	9	4997	4
100312	11:52	345	2.4.foam	10	4988	4
100312	11:52	345	1.3.jafe	11	4523	6
100312	11:52	345	2.6.kin	12	6253	3
100312	11:52	345	1.1.fryn	13	3458	1
100312	11:52	345	2.1.bug	14	3582	2
100312	11:52	345	1.2.zake	15	2197	7
100312	11:52	345	1.4.voom	16	3843	7
100312	11:52	345	1.3.tage	17	3688	3
100312	11:52	345	2.6.slit	18	2763	8
100312	11:52	345	1.6.vape	19	2346	8
100312	11:52	345	2.1.rut	20	3746	3
100312	11:52	345	2.6.scar	21	3346	9
100312	11:52	345	2.2.lop	22	2346	3
100312	11:52	345	1.2.lalo	23	2162	6
100312	11:52	345	2.4.tidy	24	2889	1
100312	11:52	345	2.5.arm	25	4052	2
100312	11:52	345	1.2.zeed	26	5152	5
100312	11:52	345	1.4.yeeb	27	2601	2
100312	11:52	345	1.6.dofe	28	2607	1
100312	11:52	345	1.3.vabe	29	2348	3
100312	11:52	345	1.1.ghun	30	5772	4
100312	11:52	345	1.2.lale	31	3860	1
100312	11:52	345	2.6.cat	32	3649	9
100312	11:52	345	2.6.mask	33	2597	8
100312	11:52	345	2.5.non	34	3259	5
100312	11:52	345	1.5.feg	35	3479	1
100312	11:52	345	2.5.boy	36	4362	2
100312	11:52	345	1.3.jofe	37	7001	6
100312	11:52	345	2.4.lump	38	6057	1
100312	11:52	345	2.2.cake	39	6173	5
100312	11:52	345	2.1.fur	40	3518	8
100312	11:52	345	1.6.soog	41	2936	3
100312	11:52	345	1.2.likk	42	2552	1
100312	11:52	345	1.1.guf	43	2968	2
100312	11:52	345	2.3.time	44	7407	3
100312	11:52	345	2.1.guy	45	4055	1
100312	11:52	345	2.2.dead	46	2835	6
100312	11:52	345	1.6.nilo	47	3936	9
100312	11:52	345	2.6.evil	48	2489	3
100312	11:52	345	2.3.hate	49	2476	1
100312	11:52	345	1.1.nuv	50	2999	3
100312	11:52	345	1.1.bryg	51	5300	7
100312	11:52	345	2.6.dark	52	2247	4
100312	11:52	345	2.1.but	53	2107	1
100312	11:52	345	2.6.pain	54	5101	5
100312	11:52	345	1.4.toof	55	4104	2
100312	11:52	345	2.1.thy	56	8130	6
100312	11:52	345	1.5.yeb	57	1836	2
100312	11:52	345	2.2.cell	58	8033	6
100312	11:52	345	2.2.lids	59	6391	2
100312	11:52	345	2.4.part	60	3639	1
100312	11:52	345	2.3.star	61	1900	8
100312	11:52	345	1.4.moob	62	1869	1
100312	11:52	345	1.3.yane	63	1920	2
100312	11:52	345	1.5.jufe	64	2505	3
100312	11:52	345	2.3.obey	65	3907	5
100312	11:52	345	1.4.teef	66	1605	1
100312	11:52	345	1.6.kabe	67	2371	6
100312	11:52	345	2.5.bomb	68	6626	1
100312	11:52	345	1.2.leel	69	7568	4
100312	11:52	345	1.3.anay	70	2449	1
100312	11:52	345	1.4.boog	71	2701	2
100312	11:52	345	1.5.vaf	72	5839	2
100312	11:52	345	1.5.tutk	73	1645	1
100312	11:52	345	2.3.more	74	4105	1
100312	11:52	345	2.4.dump	75	3131	1
100312	11:52	345	1.4.foob	76	3412	1
100312	11:52	345	2.2.sick	77	6641	6
100312	11:52	345	1.6.vook	78	4351	3
100312	11:52	345	1.6.celm	79	5960	4
100312	11:52	345	2.4.flag	80	2544	3
100312	11:52	345	1.2.zoke	81	2985	7
100312	11:52	345	1.4.yoof	82	1751	2
100312	11:52	345	2.2.slow	83	4015	2
100312	11:52	345	2.4.body	84	6404	1
100312	11:52	345	2.3.blue	85	6371	7
100312	11:52	345	1.1.ryng	86	3444	6
100312	11:52	345	2.4.moon	87	10008	4
100312	11:52	345	1.4.noof	88	2712	3
100312	11:52	345	1.6.joi	89	2810	8
100312	11:52	345	1.3.yave	90	2312	5
100312	11:52	345	2.2.leap	91	6409	6
100312	11:52	345	1.5.bih	92	2784	2
100312	11:52	345	1.5.zyr	93	3702	6
100312	11:52	345	1.1.mur	94	1857	2
100312	11:52	345	2.5.grin	95	3173	4
100312	11:52	345	2.3.knot	96	10596	6
100312	11:52	345	2.5.bus	97	3148	1
100312	11:52	345	1.3.yome	98	4292	6
100312	11:52	345	1.4.moof	99	1783	2
100312	11:52	345	2.4.nude	100	3814	2
100312	11:52	345	2.2.slid	101	2539	9
100312	11:52	345	1.6.zote	102	2852	9
100312	11:52	345	2.6.milk	103	4840	9
100312	11:52	345	1.5.fuw	104	2933	2
100312	11:52	345	2.2.sex	105	7038	8
100312	11:52	345	2.1.thus	106	7476	5
100312	11:52	345	1.1.vun	107	3944	2
100312	11:52	345	2.1.fun	108	8265	7
100312	11:52	345	2.5.art	109	2174	8
100312	11:52	345	1.3.tove	110	1965	3
100312	11:52	345	1.3.mobe	111	1644	1
100312	11:52	345	1.2.xad	112	8216	7
100312	11:52	345	2.4.free	113	4663	3
100312	11:52	345	2.3.name	114	3483	1
100312	11:52	345	2.1.buy	115	4542	2
100312	11:52	345	1.6.lim	116	2775	2
100312	11:52	345	2.3.yore	117	2815	3
100312	11:52	345	2.5.unit	118	3788	5
100312	11:52	345	2.5.bar	119	3491	4
100312	11:52	345	1.1.gub	120	5133	2
100312	12:17	234	speed	1	2057	65
100312	12:17	234	error	2	2328	83
100312	12:17	234	whichhand	3	5577	right
100312	12:17	234	1.3.tove	1	7803	4
100312	12:17	234	1.6.vook	2	4491	6
100312	12:17	234	2.6.scar	3	1982	3
100312	12:17	234	1.4.yoof	4	5036	5
100312	12:17	234	1.5.zyr	5	2530	4
100312	12:17	234	2.6.dark	6	2034	4
100312	12:17	234	2.3.name	7	2383	7
100312	12:17	234	1.6.lim	8	4565	7
100312	12:17	234	1.5.jufe	9	1829	4
100312	12:17	234	1.5.tutk	10	3697	5
100312	12:17	234	1.2.dax	11	2075	3
100312	12:17	234	1.5.jaj	12	1135	4
100312	12:17	234	2.4.flag	13	1863	6
100312	12:17	234	2.3.blue	14	1401	8
100312	12:17	234	1.5.bih	15	1319	6
100312	12:17	234	1.4.foob	16	1376	6
100312	12:17	234	2.6.mask	17	1966	6
100312	12:17	234	2.5.bus	18	2285	7
100312	12:17	234	2.1.thus	19	1744	6
100312	12:17	234	1.1.guf	20	1192	4
100312	12:17	234	1.6.nilo	21	1758	6
100312	12:17	234	2.5.bomb	22	1942	2
100312	12:17	234	1.6.kabe	23	2054	7
100312	12:17	234	1.1.ryng	24	2458	7
100312	12:17	234	2.1.thy	25	3622	6
100312	12:17	234	1.2.likk	26	2547	7
100312	12:17	234	1.4.voom	27	1547	6
100312	12:17	234	2.3.obey	28	2475	6
100312	12:17	234	2.3.more	29	1550	8
100312	12:17	234	1.2.lale	30	1629	4
100312	12:17	234	1.6.joi	31	2217	8
100312	12:17	234	1.4.moof	32	1359	4
100312	12:17	234	2.1.buy	33	2358	8
100312	12:17	234	1.6.zote	34	1622	4
100312	12:17	234	2.2.leap	35	1155	6
100312	12:17	234	1.5.feg	36	2010	2
100312	12:17	234	2.3.time	37	1272	7
100312	12:17	234	2.2.slid	38	2507	6
100312	12:17	234	2.1.fun	39	1524	9
100312	12:17	234	2.5.grin	40	1421	9
100312	12:17	234	2.5.fat	41	1778	1
100312	12:17	234	1.6.celm	42	4560	6
100312	12:17	234	2.2.dead	43	1577	2
100312	12:17	234	2.1.but	44	2184	4
100312	12:17	234	2.4.lump	45	1470	4
100312	12:17	234	2.2.cake	46	1505	9
100312	12:17	234	2.6.pain	47	1395	1
100312	12:17	234	2.2.lids	48	3617	6
100312	12:17	234	2.4.foam	49	1526	9
100312	12:17	234	1.2.leel	50	1439	3
100312	12:17	234	1.1.vuy	51	1699	4
100312	12:17	234	1.2.zeed	52	1997	7
100312	12:17	234	1.3.vabe	53	3338	6
100312	12:17	234	2.6.milk	54	1539	7
100312	12:17	234	1.1.vun	55	2924	6
100312	12:17	234	1.3.yave	56	1389	4
100312	12:17	234	2.5.art	57	1483	7
100312	12:17	234	2.5.non	58	1477	4
100312	12:17	234	2.6.cat	59	1432	7
100312	12:17	234	2.5.arm	60	3276	6
100312	12:17	234	2.1.fur	61	1583	8
100312	12:17	234	2.2.slow	62	1734	4
100312	12:17	234	2.3.hard	63	1534	5
100312	12:17	234	2.5.boy	64	1502	7
100312	12:17	234	2.4.part	65	1424	6
100312	12:17	234	1.5.yeb	66	1420	4
100312	12:17	234	2.2.cell	67	1697	7
100312	12:17	234	1.2.zape	68	1371	6
100312	12:17	234	1.1.nuv	69	1354	4
100312	12:17	234	2.4.nude	70	1305	6
100312	12:17	234	2.6.evil	71	1346	3
100312	12:17	234	2.3.star	72	1354	8
100312	12:17	234	2.4.free	73	1506	8
100312	12:17	234	2.4.dump	74	1507	2
100312	12:17	234	2.3.knot	75	4412	7
100312	12:17	234	2.6.dog	76	1298	9
100312	12:17	234	1.6.dofe	77	1204	4
100312	12:17	234	1.3.mobe	78	2457	6
100312	12:17	234	1.2.zake	79	1341	4
100312	12:17	234	2.4.moon	80	2581	7
100312	12:17	234	1.1.gub	81	1684	4
100312	12:17	234	1.5.vaf	82	1854	3
100312	12:17	234	2.1.rut	83	1610	4
100312	12:17	234	1.2.xad	84	2015	4
100312	12:17	234	1.1.ghun	85	1652	3
100312	12:17	234	2.2.sex	86	1480	6
100312	12:17	234	2.5.bar	87	1578	7
100312	12:17	234	1.6.vape	88	1224	4
100312	12:17	234	2.6.slit	89	1317	6
100312	12:17	234	1.3.jafe	90	1534	4
100312	12:17	234	2.2.lop	91	1934	3
100312	12:17	234	1.5.fuw	92	1334	4
100312	12:17	234	1.1.bryg	93	1214	4
100312	12:17	234	1.3.yome	94	1203	4
100312	12:17	234	1.4.teef	95	1752	3
100312	12:17	234	2.6.kin	96	1064	4
100312	12:17	234	1.2.zoke	97	1339	3
100312	12:17	234	2.1.rug	98	1299	6
100312	12:17	234	2.4.tidy	99	1388	7
100312	12:17	234	2.3.hate	100	1274	4
100312	12:17	234	2.1.guy	101	1637	8
100312	12:17	234	1.4.noof	102	1050	4
100312	12:17	234	2.5.unit	103	1661	5
100312	12:17	234	1.2.lalo	104	1152	4
100312	12:17	234	1.4.moob	105	1240	4
100312	12:17	234	2.2.sick	106	1996	3
100312	12:17	234	1.3.anay	107	1426	4
100312	12:17	234	1.3.jofe	108	1095	4
100312	12:17	234	1.6.soog	109	1073	3
100312	12:17	234	1.4.boog	110	2123	5
100312	12:17	234	1.1.fryn	111	1132	4
100312	12:17	234	1.4.yeeb	112	2556	4
100312	12:17	234	1.5.syg	113	1124	5
100312	12:17	234	2.3.yore	114	2133	4
100312	12:17	234	2.4.body	115	1429	7
100312	12:17	234	1.3.tage	116	1025	4
100312	12:17	234	1.4.toof	117	878	4
100312	12:17	234	2.1.bug	118	1473	6
100312	12:17	234	1.3.yane	119	836	4
100312	12:17	234	1.1.mur	120	920	4
100312	13:59	8989	speed	1	6714	37
100312	13:59	8989	error	2	7691	100
100312	13:59	8989	whichhand	3	8351	right
100312	13:59	8989	1.4.teef	1	19593	5
100312	13:59	8989	1.6.vape	2	4589	3
100312	13:59	8989	2.2.cell	3	8044	7
100312	13:59	8989	2.6.scar	4	1890	1
100312	13:59	8989	1.2.zape	5	1556	2
100312	13:59	8989	1.1.fryn	6	4036	3
100312	13:59	8989	1.6.celm	7	4569	5
100312	13:59	8989	2.1.buy	8	2089	8
100312	13:59	8989	1.4.noof	9	2419	6
100312	13:59	8989	2.4.moon	10	2016	9
100312	13:59	8989	1.4.boog	11	2149	2
100312	13:59	8989	1.5.tutk	12	1933	4
100312	13:59	8989	2.3.yore	13	1493	4
100312	13:59	8989	1.6.vook	14	4991	3
100312	13:59	8989	1.2.dax	15	3463	5
100312	13:59	8989	1.4.moof	16	1410	5
100312	13:59	8989	2.5.bus	17	1680	6
100312	13:59	8989	1.1.guf	18	2538	4
100312	13:59	8989	2.6.evil	19	3178	1
100312	13:59	8989	1.1.vuy	20	4377	6
100312	13:59	8989	1.3.yave	21	3016	7
100312	13:59	8989	2.1.but	22	2470	3
100312	13:59	8989	2.3.star	23	2145	9
100312	13:59	8989	1.6.dofe	24	2216	4
100312	13:59	8989	2.1.fur	25	2382	7
100312	13:59	8989	1.6.joi	26	2996	8
100312	13:59	8989	2.1.thy	27	2658	6
100312	13:59	8989	1.2.lalo	28	1614	5
100312	13:59	8989	1.5.jufe	29	3347	4
100312	13:59	8989	1.5.syg	30	1347	4
100312	13:59	8989	2.2.sick	31	2466	1
100312	13:59	8989	2.3.blue	32	3885	9
100312	13:59	8989	1.3.vabe	33	2537	5
100312	13:59	8989	2.4.tidy	34	3137	9
100312	13:59	8989	1.1.vun	35	2658	5
100312	13:59	8989	2.1.fun	36	2462	9
100312	13:59	8989	1.2.likk	37	3857	9
100312	13:59	8989	2.5.unit	38	3525	5
100312	13:59	8989	2.3.hate	39	2959	1
100312	13:59	8989	2.2.sex	40	2023	9
100312	13:59	8989	2.4.free	41	1860	9
100312	13:59	8989	1.1.ryng	42	3895	8
100312	13:59	8989	2.5.arm	43	2130	9
100312	13:59	8989	1.6.kabe	44	2250	6
100312	13:59	8989	1.3.anay	45	2198	2
100312	13:59	8989	1.5.feg	46	1532	3
100312	13:59	8989	2.1.rug	47	3644	6
100312	13:59	8989	2.1.guy	48	2329	5
100312	13:59	8989	2.6.slit	49	4257	5
100312	13:59	8989	1.3.tove	50	1534	6
100312	13:59	8989	1.4.yoof	51	1758	5
100312	13:59	8989	2.5.non	52	5029	1
100312	13:59	8989	2.3.time	53	2283	7
100312	13:59	8989	1.6.soog	54	1989	2
100312	13:59	8989	2.2.cake	55	1867	9
100312	13:59	8989	2.2.dead	56	2094	1
100312	13:59	8989	1.2.zoke	57	2024	5
100312	13:59	8989	2.2.leap	58	7134	9
100312	13:59	8989	2.4.nude	59	1056	9
100312	13:59	8989	2.4.lump	60	4979	3
100312	13:59	8989	2.6.pain	61	1914	1
100312	13:59	8989	1.4.yeeb	62	2523	5
100312	13:59	8989	2.6.kin	63	2813	9
100312	13:59	8989	2.3.obey	64	2754	9
100312	13:59	8989	2.6.mask	65	3514	3
100312	13:59	8989	1.1.mur	66	4019	3
100312	13:59	8989	1.1.gub	67	10449	4
100312	13:59	8989	1.3.mobe	68	1888	5
100312	13:59	8989	2.2.slow	69	2082	1
100312	13:59	8989	1.4.toof	70	1572	2
100312	13:59	8989	1.2.zeed	71	2771	9
100312	13:59	8989	1.5.bih	72	2770	4
100312	13:59	8989	1.1.ghun	73	4041	3
100312	13:59	8989	2.5.grin	74	6518	6
100312	13:59	8989	1.3.yane	75	1929	4
100312	13:59	8989	2.3.more	76	2289	9
100312	13:59	8989	2.6.dark	77	3420	4
100312	13:59	8989	2.6.milk	78	2001	8
100312	13:59	8989	2.2.lop	79	2446	4
100312	13:59	8989	1.3.jofe	80	2971	7
100312	13:59	8989	1.5.yeb	81	4362	5
100312	13:59	8989	1.2.lale	82	2426	5
100312	13:59	8989	2.4.foam	83	2644	9
100312	13:59	8989	1.6.nilo	84	3539	8
100312	13:59	8989	2.1.rut	85	2572	1
100312	13:59	8989	2.3.hard	86	1003	1
100312	13:59	8989	2.4.part	87	5792	5
100312	13:59	8989	2.2.lids	88	2640	9
100312	13:59	8989	1.4.moob	89	1916	7
100312	13:59	8989	1.4.voom	90	2917	7
100312	13:59	8989	2.5.art	91	2095	9
100312	13:59	8989	1.4.foob	92	2136	3
100312	13:59	8989	2.2.slid	93	2097	5
100312	13:59	8989	2.6.cat	94	4635	5
100312	13:59	8989	1.2.zake	95	1904	6
100312	13:59	8989	1.3.yome	96	4441	4
100312	13:59	8989	1.3.jafe	97	2198	5
100312	13:59	8989	2.6.dog	98	2564	7
100312	13:59	8989	2.5.bar	99	2187	9
100312	13:59	8989	2.5.fat	100	2266	1
100312	13:59	8989	1.1.bryg	101	1197	5
100312	13:59	8989	1.2.xad	102	1675	5
100312	13:59	8989	2.3.knot	103	1693	6
100312	13:59	8989	1.5.fuw	104	2256	4
100312	13:59	8989	1.6.lim	105	1595	5
100312	13:59	8989	2.4.body	106	2225	9
100312	13:59	8989	2.4.dump	107	2222	1
100312	13:59	8989	1.3.tage	108	1531	4
100312	13:59	8989	1.5.vaf	109	899	4
100312	13:59	8989	2.3.name	110	2245	9
100312	13:59	8989	2.5.boy	111	2209	5
100312	13:59	8989	2.1.bug	112	2831	1
100312	13:59	8989	1.5.zyr	113	2555	3
100312	13:59	8989	1.2.leel	114	2459	4
100312	13:59	8989	1.5.jaj	115	3871	9
100312	13:59	8989	2.1.thus	116	1763	6
100312	13:59	8989	2.4.flag	117	2034	7
100312	13:59	8989	1.6.zote	118	2806	4
100312	13:59	8989	2.5.bomb	119	2156	2
100312	13:59	8989	1.1.nuv	120	1132	5
100312	14:20	78856	speed	1	5717	40
100312	14:20	78856	error	2	5116	90
100312	14:20	78856	whichhand	3	7671	right
100312	14:20	78856	1.3.jafe	1	14245	4
100312	14:20	78856	1.5.syg	2	7101	4
100312	14:20	78856	1.5.fuw	3	2456	4
100312	14:20	78856	1.6.soog	4	6228	4
100312	14:20	78856	1.5.bih	5	3154	3
100312	14:20	78856	1.6.vape	6	2234	5
100312	14:20	78856	1.1.bryg	7	4126	3
100312	14:20	78856	1.4.voom	8	3360	6
100312	14:20	78856	1.4.yeeb	9	2032	5
100312	14:20	78856	1.5.tutk	10	5156	4
100312	14:20	78856	1.5.jufe	11	3317	3
100312	14:20	78856	2.4.flag	12	2935	7
100312	14:20	78856	2.2.slow	13	2775	7
100312	14:20	78856	2.2.cell	14	3798	7
100312	14:20	78856	2.1.but	15	2877	7
100312	14:20	78856	1.2.leel	16	2816	4
100312	14:20	78856	2.2.cake	17	2461	8
100312	14:20	78856	1.4.boog	18	3824	5
100312	14:20	78856	1.6.dofe	19	2790	4
100312	14:20	78856	2.5.boy	20	1589	7
100312	14:20	78856	2.3.time	21	1803	7
100312	14:20	78856	1.4.moob	22	1233	7
100312	14:20	78856	2.5.art	23	1621	8
100312	14:20	78856	2.4.free	24	1250	8
100312	14:20	78856	1.4.toof	25	4701	6
100312	14:20	78856	1.1.vuy	26	2456	4
100312	14:20	78856	2.3.hard	27	1731	7
100312	14:20	78856	1.6.vook	28	3347	4
100312	14:20	78856	2.4.part	29	2380	8
100312	14:20	78856	1.2.zape	30	2762	5
100312	14:20	78856	1.5.vaf	31	3921	4
100312	14:20	78856	1.4.moof	32	1427	6
100312	14:20	78856	2.4.dump	33	1744	7
100312	14:20	78856	1.1.nuv	34	3248	4
100312	14:20	78856	1.2.dax	35	3588	4
100312	14:20	78856	2.5.grin	36	1763	8
100312	14:20	78856	1.6.celm	37	1954	5
100312	14:20	78856	2.6.dark	38	1754	8
100312	14:20	78856	1.5.zyr	39	1897	4
100312	14:20	78856	2.4.lump	40	4795	6
100312	14:20	78856	1.1.mur	41	5602	7
100312	14:20	78856	2.3.knot	42	4529	7
100312	14:20	78856	1.3.anay	43	2570	5
100312	14:20	78856	2.4.foam	44	2809	7
100312	14:20	78856	2.2.lop	45	1471	6
100312	14:20	78856	1.1.ryng	46	2705	4
100312	14:20	78856	1.3.yave	47	2331	5
100312	14:20	78856	2.4.moon	48	3620	8
100312	14:20	78856	2.6.dog	49	2057	9
100312	14:20	78856	2.3.obey	50	1373	8
100312	14:20	78856	1.1.guf	51	1572	6
100312	14:20	78856	1.5.yeb	52	1035	6
100312	14:20	78856	2.6.slit	53	1991	7
100312	14:20	78856	1.3.yome	54	1405	5
100312	14:20	78856	1.3.vabe	55	1179	5
100312	14:20	78856	1.5.feg	56	1457	5
100312	14:20	78856	2.1.fur	57	1388	6
100312	14:20	78856	2.2.lids	58	1490	7
100312	14:20	78856	1.2.zake	59	1892	7
100312	14:20	78856	2.1.fun	60	1575	8
100312	14:20	78856	2.2.sex	61	2990	6
100312	14:20	78856	2.3.blue	62	1940	7
100312	14:20	78856	2.2.leap	63	1669	7
100312	14:20	78856	1.6.kabe	64	3152	5
100312	14:20	78856	2.5.non	65	2904	5
100312	14:20	78856	1.2.lalo	66	1354	6
100312	14:20	78856	2.5.arm	67	1057	7
100312	14:20	78856	1.4.noof	68	1100	6
100312	14:20	78856	1.6.joi	69	1886	5
100312	14:20	78856	1.4.foob	70	1960	6
100312	14:20	78856	1.2.xad	71	1584	3
100312	14:20	78856	2.6.mask	72	1670	8
100312	14:20	78856	1.2.zoke	73	1393	5
100312	14:20	78856	2.2.dead	74	2303	4
100312	14:20	78856	1.1.fryn	75	3169	4
100312	14:20	78856	2.5.bus	76	1424	6
100312	14:20	78856	2.1.buy	77	1749	8
100312	14:20	78856	2.6.cat	78	1565	9
100312	14:20	78856	1.1.vun	79	2107	5
100312	14:20	78856	2.5.fat	80	2821	6
100312	14:20	78856	2.5.bomb	81	4106	4
100312	14:20	78856	1.1.gub	82	2973	5
100312	14:20	78856	2.6.evil	83	1852	4
100312	14:20	78856	1.2.zeed	84	2088	5
100312	14:20	78856	2.6.kin	85	1794	6
100312	14:20	78856	1.3.tage	86	1880	4
100312	14:20	78856	2.2.slid	87	3098	5
100312	14:20	78856	2.6.scar	88	3781	4
100312	14:20	78856	2.1.guy	89	1476	6
100312	14:20	78856	2.3.more	90	1927	7
100312	14:20	78856	2.4.tidy	91	1208	7
100312	14:20	78856	1.3.tove	92	2501	5
100312	14:20	78856	2.3.name	93	3199	7
100312	14:20	78856	1.6.nilo	94	1181	6
100312	14:20	78856	2.1.thy	95	1627	5
100312	14:20	78856	2.6.milk	96	1528	8
100312	14:20	78856	2.1.rug	97	2321	7
100312	14:20	78856	2.6.pain	98	2090	2
100312	14:20	78856	1.3.mobe	99	2404	5
100312	14:20	78856	1.5.jaj	100	1730	4
100312	14:20	78856	1.4.yoof	101	1450	4
100312	14:20	78856	2.5.unit	102	2622	5
100312	14:20	78856	1.3.jofe	103	1827	4
100312	14:20	78856	2.1.bug	104	2072	2
100312	14:20	78856	1.6.zote	105	3115	5
100312	14:20	78856	2.4.nude	106	1716	5
100312	14:20	78856	2.2.sick	107	1925	2
100312	14:20	78856	2.3.yore	108	2190	4
100312	14:20	78856	1.6.lim	109	1429	4
100312	14:20	78856	1.4.teef	110	1329	4
100312	14:20	78856	1.2.likk	111	1657	4
100312	14:20	78856	2.4.body	112	1325	5
100312	14:20	78856	2.3.star	113	1829	8
100312	14:20	78856	1.3.yane	114	1482	5
100312	14:20	78856	2.3.hate	115	2948	1
100312	14:20	78856	2.5.bar	116	2652	7
100312	14:20	78856	2.1.thus	117	1440	6
100312	14:20	78856	1.1.ghun	118	1972	4
100312	14:20	78856	2.1.rut	119	2115	4
100312	14:20	78856	1.2.lale	120	1748	3
100412	09:06	654	speed	1	4821	39
100412	09:06	654	error	2	3724	87
100412	09:06	654	whichhand	3	5311	right
100412	09:06	654	1.6.kabe	1	2011	5
100412	09:06	654	1.4.moof	2	1784	5
100412	09:06	654	2.5.unit	3	1543	4
100412	09:06	654	1.3.vabe	4	1631	4
100412	09:06	654	1.4.noof	5	1427	6
100412	09:06	654	1.2.dax	6	1336	5
100412	09:06	654	1.3.mobe	7	2808	3
100412	09:06	654	2.4.moon	8	3334	7
100412	09:06	654	2.6.evil	9	1503	1
100412	09:06	654	2.3.star	10	1600	8
100412	09:06	654	1.3.jafe	11	1590	4
100412	09:06	654	1.4.toof	12	1596	5
100412	09:06	654	2.3.knot	13	1986	3
100412	09:06	654	2.2.slid	14	1464	4
100412	09:06	654	1.4.boog	15	3195	4
100412	09:06	654	1.6.celm	16	2073	5
100412	09:06	654	2.2.slow	17	1780	6
100412	09:06	654	2.4.tidy	18	1770	7
100412	09:06	654	2.4.part	19	1929	5
100412	09:06	654	2.2.lids	20	1521	6
100412	09:06	654	1.1.gub	21	4434	5
100412	09:06	654	1.6.dofe	22	1279	6
100412	09:06	654	1.6.nilo	23	4369	6
100412	09:06	654	2.4.dump	24	1321	3
100412	09:06	654	1.2.leel	25	1642	4
100412	09:06	654	1.3.yave	26	8910	7
100412	09:06	654	2.6.milk	27	11521	8
100412	09:06	654	1.5.syg	28	1350	6
100412	09:06	654	1.5.jaj	29	1557	4
100412	09:06	654	1.5.jufe	30	1405	4
100412	09:06	654	2.4.free	31	1778	8
100412	09:06	654	1.6.vook	32	1649	3
100412	09:06	654	2.1.fun	33	1132	8
100412	09:06	654	2.1.fur	34	1316	7
100412	09:06	654	2.5.boy	35	1349	7
100412	09:06	654	1.1.vuy	36	1428	6
100412	09:06	654	1.4.yoof	37	1520	4
100412	09:06	654	1.5.zyr	38	1097	5
100412	09:06	654	2.1.rug	39	1147	6
100412	09:06	654	1.1.guf	40	1426	4
100412	09:06	654	2.5.bar	41	1487	6
100412	09:06	654	2.3.time	42	1265	5
100412	09:06	654	2.3.hate	43	2564	3
100412	09:06	654	1.4.foob	44	2267	3
100412	09:06	654	2.2.cell	45	1366	7
100412	09:06	654	2.6.pain	46	1989	2
100412	09:06	654	1.2.zeed	47	1428	5
100412	09:06	654	1.4.moob	48	872	4
100412	09:06	654	2.1.thy	49	1339	6
100412	09:06	654	1.2.likk	50	1931	4
100412	09:06	654	1.4.teef	51	2083	6
100412	09:06	654	2.3.obey	52	1533	7
100412	09:06	654	2.1.guy	53	1822	6
100412	09:06	654	1.6.soog	54	1443	3
100412	09:06	654	2.3.name	55	2583	7
100412	09:06	654	2.1.bug	56	2261	1
100412	09:06	654	2.3.hard	57	1736	4
100412	09:06	654	2.3.yore	58	1089	4
100412	09:06	654	2.6.kin	59	1203	7
100412	09:06	654	2.5.arm	60	4896	5
100412	09:06	654	2.3.more	61	1459	8
100412	09:06	654	1.5.vaf	62	1630	4
100412	09:06	654	1.3.jofe	63	1195	6
100412	09:06	654	1.4.voom	64	1377	5
100412	09:06	654	1.1.ghun	65	1375	6
100412	09:06	654	2.5.bomb	66	1806	3
100412	09:06	654	1.6.zote	67	2060	7
100412	09:06	654	1.3.yome	68	1215	6
100412	09:06	654	1.3.yane	69	2084	8
100412	09:06	654	2.6.slit	70	2271	3
100412	09:06	654	2.4.lump	71	4754	5
100412	09:06	654	1.5.fuw	72	1122	6
100412	09:06	654	1.2.lale	73	1531	4
100412	09:06	654	2.3.blue	74	1275	5
100412	09:06	654	2.2.sick	75	2526	2
100412	09:06	654	1.5.feg	76	1151	4
100412	09:06	654	2.4.nude	77	1975	7
100412	09:06	654	1.5.tutk	78	1406	4
100412	09:06	654	2.1.buy	79	1739	6
100412	09:06	654	1.3.tove	80	1459	5
100412	09:06	654	2.6.cat	81	2671	8
100412	09:06	654	2.1.thus	82	1162	6
100412	09:06	654	2.5.grin	83	1345	7
100412	09:06	654	2.5.non	84	1264	6
100412	09:06	654	2.2.dead	85	1467	3
100412	09:06	654	2.2.lop	86	1702	4
100412	09:06	654	1.1.nuv	87	1367	4
100412	09:06	654	1.2.zape	88	1206	5
100412	09:06	654	1.5.bih	89	1851	7
100412	09:06	654	1.2.zoke	90	2831	3
100412	09:06	654	2.6.mask	91	3444	6
100412	09:06	654	1.3.anay	92	2185	4
100412	09:06	654	1.6.joi	93	1767	7
100412	09:06	654	2.5.fat	94	2358	2
100412	09:06	654	2.5.bus	95	2454	3
100412	09:06	654	1.4.yeeb	96	2202	4
100412	09:06	654	2.4.body	97	2503	6
100412	09:06	654	2.6.dark	98	1865	3
100412	09:06	654	2.2.cake	99	1756	8
100412	09:06	654	2.1.rut	100	1348	4
100412	09:06	654	1.6.vape	101	1267	4
100412	09:06	654	1.1.mur	102	1174	5
100412	09:06	654	2.1.but	103	1493	4
100412	09:06	654	2.6.dog	104	1535	7
100412	09:06	654	2.4.foam	105	1727	6
100412	09:06	654	1.1.fryn	106	2400	7
100412	09:06	654	2.4.flag	107	1462	7
100412	09:06	654	2.2.leap	108	1497	6
100412	09:06	654	1.2.lalo	109	1754	4
100412	09:06	654	1.1.bryg	110	2122	3
100412	09:06	654	2.2.sex	111	2923	6
100412	09:06	654	1.1.vun	112	1180	5
100412	09:06	654	2.5.art	113	1442	7
100412	09:06	654	1.6.lim	114	1238	6
100412	09:06	654	2.6.scar	115	2563	3
100412	09:06	654	1.2.zake	116	1506	4
100412	09:06	654	1.1.ryng	117	1875	7
100412	09:06	654	1.2.xad	118	3294	3
100412	09:06	654	1.5.yeb	119	1313	2
100412	09:06	654	1.3.tage	120	1010	4
100412	09:56	518	speed	1	3806	64
100412	09:56	518	error	2	3183	89
100412	09:56	518	whichhand	3	5223	Right
100412	09:56	518	1.3.jafe	1	7333	5
100412	09:56	518	1.5.yeb	2	4927	5
100412	09:56	518	1.3.tove	3	4465	5
100412	09:56	518	1.6.vook	4	4308	5
100412	09:56	518	1.3.mobe	5	2319	5
100412	09:56	518	1.6.joi	6	4280	6
100412	09:56	518	2.5.non	7	2539	5
100412	09:56	518	1.5.jaj	8	2996	5
100412	09:56	518	2.3.name	9	4674	5
100412	09:56	518	2.4.dump	10	3494	6
100412	09:56	518	1.1.ryng	11	4496	5
100412	09:56	518	1.2.dax	12	3307	5
100412	09:56	518	2.1.thus	13	2189	5
100412	09:56	518	2.6.evil	14	4523	5
100412	09:56	518	2.1.thy	15	1917	5
100412	09:56	518	2.5.arm	16	4126	6
100412	09:56	518	2.4.lump	17	3360	5
100412	09:56	518	1.1.ghun	18	2672	5
100412	09:56	518	2.6.scar	19	3395	5
100412	09:56	518	2.1.fur	20	2745	5
100412	09:56	518	1.2.lale	21	2009	5
100412	09:56	518	2.6.kin	22	1767	5
100412	09:56	518	2.5.bus	23	1926	5
100412	09:56	518	2.1.buy	24	1951	5
100412	09:56	518	2.5.grin	25	2551	5
100412	09:56	518	1.3.yane	26	2590	5
100412	09:56	518	2.4.tidy	27	2029	5
100412	09:56	518	1.5.vaf	28	1705	5
100412	09:56	518	2.2.sex	29	2907	7
100412	09:56	518	1.1.guf	30	1565	5
100412	09:56	518	2.6.dog	31	2100	7
100412	09:56	518	1.2.leel	32	1605	5
100412	09:56	518	1.4.voom	33	1611	5
100412	09:56	518	1.2.xad	34	1345	5
100412	09:56	518	2.4.moon	35	3025	5
100412	09:56	518	1.4.teef	36	1838	5
100412	09:56	518	1.5.tutk	37	1402	5
100412	09:56	518	2.3.time	38	1536	5
100412	09:56	518	2.5.fat	39	2504	5
100412	09:56	518	2.5.unit	40	1530	5
100412	09:56	518	2.4.body	41	2194	6
100412	09:56	518	1.3.anay	42	1368	5
100412	09:56	518	1.3.tage	43	1151	5
100412	09:56	518	2.5.boy	44	1535	5
100412	09:56	518	1.4.yeeb	45	1367	5
100412	09:56	518	2.2.slow	46	1374	5
100412	09:56	518	2.2.leap	47	1060	5
100412	09:56	518	2.6.pain	48	1216	5
100412	09:56	518	2.4.nude	49	1380	6
100412	09:56	518	1.3.yave	50	1203	5
100412	09:56	518	1.3.vabe	51	1104	5
100412	09:56	518	2.5.art	52	1458	5
100412	09:56	518	1.5.zyr	53	1573	5
100412	09:56	518	1.5.feg	54	1068	5
100412	09:56	518	1.2.zeed	55	1182	5
100412	09:56	518	1.1.nuv	56	965	5
100412	09:56	518	1.4.noof	57	990	5
100412	09:56	518	2.3.hate	58	1129	5
100412	09:56	518	2.5.bomb	59	1497	4
100412	09:56	518	1.5.syg	60	1211	5
100412	09:56	518	1.6.dofe	61	1280	5
100412	09:56	518	2.6.mask	62	1659	5
100412	09:56	518	1.4.boog	63	1462	5
100412	09:56	518	1.1.vuy	64	1129	5
100412	09:56	518	1.6.vape	65	1049	5
100412	09:56	518	2.2.slid	66	1300	5
100412	09:56	518	2.2.lop	67	1142	5
100412	09:56	518	2.6.slit	68	1438	5
100412	09:56	518	2.5.bar	69	1730	6
100412	09:56	518	1.4.moof	70	1034	5
100412	09:56	518	1.6.nilo	71	1038	5
100412	09:56	518	1.3.jofe	72	1386	5
100412	09:56	518	1.6.lim	73	1392	5
100412	09:56	518	2.4.free	74	2263	6
100412	09:56	518	2.2.dead	75	1594	4
100412	09:56	518	2.4.flag	76	1688	6
100412	09:56	518	1.5.bih	77	1802	5
100412	09:56	518	2.6.milk	78	1904	6
100412	09:56	518	1.2.zoke	79	1225	5
100412	09:56	518	2.6.dark	80	1110	5
100412	09:56	518	1.5.jufe	81	1183	5
100412	09:56	518	1.2.likk	82	1094	5
100412	09:56	518	1.1.gub	83	864	5
100412	09:56	518	2.4.foam	84	1514	5
100412	09:56	518	1.1.vun	85	1499	5
100412	09:56	518	1.4.yoof	86	1165	5
100412	09:56	518	2.4.part	87	1731	5
100412	09:56	518	2.3.star	88	2084	6
100412	09:56	518	1.4.moob	89	1182	5
100412	09:56	518	1.1.bryg	90	948	5
100412	09:56	518	1.6.celm	91	995	5
100412	09:56	518	1.3.yome	92	897	5
100412	09:56	518	2.1.fun	93	1426	7
100412	09:56	518	2.3.obey	94	1719	5
100412	09:56	518	2.3.blue	95	1616	6
100412	09:56	518	1.2.zape	96	1005	5
100412	09:56	518	2.1.bug	97	914	5
100412	09:56	518	2.3.knot	98	1235	5
100412	09:56	518	1.6.soog	99	1095	5
100412	09:56	518	2.3.yore	100	1377	5
100412	09:56	518	2.1.rut	101	2104	5
100412	09:56	518	1.6.zote	102	1641	5
100412	09:56	518	2.3.hard	103	1766	6
100412	09:56	518	1.2.lalo	104	924	5
100412	09:56	518	1.4.toof	105	1565	5
100412	09:56	518	2.2.lids	106	3084	6
100412	09:56	518	2.1.guy	107	1735	5
100412	09:56	518	1.5.fuw	108	943	5
100412	09:56	518	2.3.more	109	959	5
100412	09:56	518	1.1.fryn	110	1022	5
100412	09:56	518	1.6.kabe	111	987	5
100412	09:56	518	2.1.rug	112	1097	5
100412	09:56	518	2.1.but	113	906	5
100412	09:56	518	1.1.mur	114	1356	5
100412	09:56	518	2.2.sick	115	843	5
100412	09:56	518	1.2.zake	116	767	5
100412	09:56	518	1.4.foob	117	854	5
100412	09:56	518	2.2.cake	118	2321	6
100412	09:56	518	2.2.cell	119	2026	5
100412	09:56	518	2.6.cat	120	1423	5
100812	09:01	6	speed	1	3682	18
100812	09:01	6	error	2	2506	83
100812	09:01	6	whichhand	3	7833	right
100812	09:01	6	1.4.voom	1	8507	5
100812	09:01	6	2.4.part	2	5583	5
100812	09:01	6	1.4.teef	3	5887	3
100812	09:01	6	2.5.fat	4	3506	1
100812	09:01	6	2.3.name	5	5565	8
100812	09:01	6	1.1.gub	6	4069	5
100812	09:01	6	2.4.tidy	7	8824	6
100812	09:01	6	2.3.time	8	4720	7
100812	09:01	6	1.2.leel	9	7738	8
100812	09:01	6	1.1.mur	10	6412	4
100812	09:01	6	1.5.syg	11	8866	6
100812	09:01	6	2.5.unit	12	6006	9
100812	09:01	6	2.2.dead	13	2943	1
100812	09:01	6	2.4.foam	14	4255	4
100812	09:01	6	2.6.dog	15	6747	6
100812	09:01	6	2.3.knot	16	3981	3
100812	09:01	6	2.2.slid	17	5204	5
100812	09:01	6	1.2.dax	18	11802	5
100812	09:01	6	2.6.scar	19	3523	1
100812	09:01	6	1.3.tove	20	4389	2
100812	09:01	6	2.6.cat	21	2748	1
100812	09:01	6	2.4.free	22	2500	9
100812	09:01	6	2.2.lids	23	10534	7
100812	09:01	6	1.6.soog	24	4177	1
100812	09:01	6	2.1.bug	25	2889	1
100812	09:01	6	1.4.boog	26	4043	2
100812	09:01	6	2.6.milk	27	3680	9
100812	09:01	6	1.6.vape	28	6763	6
100812	09:01	6	2.1.fun	29	2171	9
100812	09:01	6	2.2.lop	30	7458	4
100812	09:01	6	2.5.art	31	4192	9
100812	09:01	6	2.1.fur	32	8911	7
100812	09:01	6	2.1.rut	33	8673	1
100812	09:01	6	1.5.zyr	34	6432	2
100812	09:01	6	2.3.blue	35	4213	1
100812	09:01	6	1.6.celm	36	3763	2
100812	09:01	6	1.5.yeb	37	10530	2
100812	09:01	6	1.3.yane	38	8038	1
100812	09:01	6	1.2.zake	39	6572	8
100812	09:01	6	2.3.yore	40	5372	5
100812	09:01	6	1.3.yave	41	10068	8
100812	09:01	6	2.4.moon	42	7522	9
100812	09:01	6	1.3.mobe	43	6613	6
100812	09:01	6	2.2.sick	44	3004	1
100812	09:01	6	2.6.kin	45	4730	7
100812	09:01	6	1.5.tutk	46	4747	1
100812	09:01	6	1.4.yoof	47	4123	1
100812	09:01	6	1.2.likk	48	24084	9
100812	09:01	6	1.3.vabe	49	4927	9
100812	09:01	6	2.2.cell	50	3889	1
100812	09:01	6	2.6.mask	51	12651	4
100812	09:01	6	2.5.arm	52	23058	7
100812	09:01	6	1.6.vook	53	7204	3
100812	09:01	6	2.5.bus	54	9836	1
100812	09:01	6	2.5.non	55	5195	1
100812	09:01	6	2.2.cake	56	2282	9
100812	09:01	6	1.5.bih	57	19659	5
100812	09:01	6	1.1.vuy	58	9396	5
100812	09:01	6	1.1.vun	59	4165	9
100812	09:01	6	1.1.ghun	60	3245	1
100812	09:01	6	1.4.moob	61	17856	6
100812	09:01	6	2.6.pain	62	2889	1
100812	09:01	6	1.4.yeeb	63	9843	3
100812	09:01	6	1.5.jufe	64	8641	7
100812	09:01	6	2.4.flag	65	7176	6
100812	09:01	6	1.4.foob	66	4793	2
100812	09:01	6	1.2.zeed	67	6208	2
100812	09:01	6	1.5.jaj	68	8367	3
100812	09:01	6	2.4.body	69	5752	6
100812	09:01	6	1.5.fuw	70	3897	5
100812	09:01	6	2.4.nude	71	11787	9
100812	09:01	6	1.6.nilo	72	9181	5
100812	09:01	6	2.5.bomb	73	2774	1
100812	09:01	6	1.2.zape	74	13740	3
100812	09:01	6	1.4.toof	75	24543	1
100812	09:01	6	2.1.thus	76	5271	2
100812	09:01	6	2.6.slit	77	3787	1
100812	09:01	6	1.1.ryng	78	7050	6
100812	09:01	6	1.6.joi	79	5152	9
100812	09:01	6	1.6.zote	80	9320	2
100812	09:01	6	1.5.feg	81	7891	5
100812	09:01	6	1.3.yome	82	6552	9
100812	09:01	6	1.4.moof	83	6161	7
100812	09:01	6	2.5.boy	84	5385	5
100812	09:01	6	1.5.vaf	85	9609	5
100812	09:01	6	1.3.anay	86	9568	5
100812	09:01	6	2.3.hate	87	2466	1
100812	09:01	6	2.5.grin	88	4653	7
100812	09:01	6	1.1.bryg	89	7417	5
100812	09:01	6	2.2.slow	90	2072	1
100812	09:01	6	1.2.xad	91	1803	1
100812	09:01	6	2.6.evil	92	1177	1
100812	09:01	6	2.2.leap	93	3848	6
100812	09:01	6	2.3.obey	94	1860	5
100812	09:01	6	2.1.buy	95	1992	7
100812	09:01	6	2.1.but	96	4998	3
100812	09:01	6	1.2.lalo	97	3277	5
100812	09:01	6	2.1.rug	98	2112	5
100812	09:01	6	1.1.guf	99	2697	5
100812	09:01	6	2.5.bar	100	3658	4
100812	09:01	6	2.4.lump	101	2167	4
100812	09:01	6	1.3.jafe	102	6982	6
100812	09:01	6	2.3.more	103	2590	7
100812	09:01	6	2.3.hard	104	3093	5
100812	09:01	6	1.3.jofe	105	2855	7
100812	09:01	6	1.6.dofe	106	2955	5
100812	09:01	6	1.2.lale	107	1907	5
100812	09:01	6	2.3.star	108	2157	9
100812	09:01	6	2.6.dark	109	1661	1
100812	09:01	6	1.2.zoke	110	4376	9
100812	09:01	6	2.1.guy	111	2264	5
100812	09:01	6	1.6.kabe	112	7283	9
100812	09:01	6	1.6.lim	113	3767	6
100812	09:01	6	2.4.dump	114	3007	3
100812	09:01	6	1.1.nuv	115	3021	5
100812	09:01	6	2.1.thy	116	2986	5
100812	09:01	6	1.3.tage	117	3233	5
100812	09:01	6	2.2.sex	118	2397	9
100812	09:01	6	1.4.noof	119	7435	6
100812	09:01	6	1.1.fryn	120	4927	7
100812	10:20	6	speed	1	2602	41
100812	10:20	6	error	2	2352	97
100812	10:20	6	whichhand	3	10248	left
100812	10:20	6	2.6.pain	1	8437	1
100812	10:20	6	1.4.foob	2	5827	3
100812	10:20	6	1.2.likk	3	4169	4
100812	10:20	6	2.6.cat	4	2433	2
100812	10:20	6	1.1.fryn	5	4381	4
100812	10:20	6	1.6.celm	6	3164	6
100812	10:20	6	1.1.vun	7	3812	3
100812	10:20	6	2.2.lop	8	2825	6
100812	10:20	6	2.5.bar	9	2862	5
100812	10:20	6	2.5.bus	10	2762	7
100812	10:20	6	2.5.bomb	11	6033	2
100812	10:20	6	1.6.joi	12	3271	6
100812	10:20	6	2.4.flag	13	3122	6
100812	10:20	6	2.2.slid	14	4084	3
100812	10:20	6	1.3.tage	15	3743	5
100812	10:20	6	2.4.foam	16	2423	8
100812	10:20	6	1.2.leel	17	2316	7
100812	10:20	6	2.3.name	18	1870	5
100812	10:20	6	2.1.thus	19	3009	4
100812	10:20	6	2.6.evil	20	1951	3
100812	10:20	6	2.1.thy	21	2790	5
100812	10:20	6	2.2.cell	22	1845	6
100812	10:20	6	1.1.guf	23	2473	5
100812	10:20	6	2.4.dump	24	3220	3
100812	10:20	6	1.4.moof	25	2417	4
100812	10:20	6	1.5.jaj	26	5518	5
100812	10:20	6	2.4.nude	27	2168	5
100812	10:20	6	2.6.scar	28	1496	3
100812	10:20	6	2.6.milk	29	2417	6
100812	10:20	6	1.3.jafe	30	1694	5
100812	10:20	6	2.2.cake	31	1856	7
100812	10:20	6	2.3.hard	32	2188	4
100812	10:20	6	2.1.but	33	2402	4
100812	10:20	6	1.1.vuy	34	1808	3
100812	10:20	6	2.6.slit	35	1694	2
100812	10:20	6	2.5.grin	36	2408	6
100812	10:20	6	1.1.ryng	37	3790	3
100812	10:20	6	1.4.yeeb	38	2605	6
100812	10:20	6	2.2.lids	39	2827	5
100812	10:20	6	2.6.kin	40	4552	5
100812	10:20	6	1.4.teef	41	4249	4
100812	10:20	6	1.5.vaf	42	2845	4
100812	10:20	6	2.5.arm	43	4105	5
100812	10:20	6	2.4.body	44	1939	5
100812	10:20	6	2.6.dark	45	1596	4
100812	10:20	6	2.4.part	46	1729	4
100812	10:20	6	1.2.zape	47	2497	6
100812	10:20	6	2.5.unit	48	1835	5
100812	10:20	6	2.6.dog	49	2631	8
100812	10:20	6	1.3.yave	50	2556	5
100812	10:20	6	2.2.dead	51	2708	2
100812	10:20	6	2.1.buy	52	5526	5
100812	10:20	6	2.1.bug	53	3008	3
100812	10:20	6	1.2.lale	54	2102	7
100812	10:20	6	2.1.fun	55	2328	8
100812	10:20	6	1.4.boog	56	2881	6
100812	10:20	6	1.6.zote	57	2387	4
100812	10:20	6	2.1.rut	58	3002	3
100812	10:20	6	2.3.hate	59	2672	2
100812	10:20	6	2.1.guy	60	3899	5
100812	10:20	6	2.5.fat	61	3109	3
100812	10:20	6	1.5.tutk	62	4023	4
100812	10:20	6	1.2.lalo	63	2821	6
100812	10:20	6	2.3.obey	64	3906	5
100812	10:20	6	2.2.slow	65	3876	5
100812	10:20	6	1.1.gub	66	1864	4
100812	10:20	6	2.4.free	67	4155	8
100812	10:20	6	1.5.yeb	68	2820	5
100812	10:20	6	2.1.rug	69	6569	6
100812	10:20	6	1.6.kabe	70	2521	5
100812	10:20	6	1.2.zake	71	1811	4
100812	10:20	6	2.3.yore	72	2656	3
100812	10:20	6	1.3.yome	73	1940	5
100812	10:20	6	2.5.boy	74	4572	7
100812	10:20	6	1.3.yane	75	1388	5
100812	10:20	6	1.6.lim	76	1570	7
100812	10:20	6	1.4.noof	77	3161	3
100812	10:20	6	1.5.feg	78	2193	5
100812	10:20	6	2.2.sex	79	1759	7
100812	10:20	6	2.2.sick	80	3255	2
100812	10:20	6	1.5.zyr	81	2115	2
100812	10:20	6	1.5.fuw	82	6652	3
100812	10:20	6	2.3.knot	83	3753	5
100812	10:20	6	2.3.more	84	3305	4
100812	10:20	6	2.6.mask	85	1571	5
100812	10:20	6	1.3.jofe	86	1578	4
100812	10:20	6	1.3.mobe	87	2808	4
100812	10:20	6	1.3.vabe	88	1494	4
100812	10:20	6	2.5.non	89	5744	5
100812	10:20	6	1.6.soog	90	3729	5
100812	10:20	6	1.6.vape	91	3154	4
100812	10:20	6	1.6.dofe	92	2426	4
100812	10:20	6	1.6.vook	93	2311	5
100812	10:20	6	2.4.tidy	94	3329	5
100812	10:20	6	2.5.art	95	5929	6
100812	10:20	6	1.2.zeed	96	3963	5
100812	10:20	6	1.4.toof	97	2091	4
100812	10:20	6	1.4.moob	98	3029	4
100812	10:20	6	1.3.anay	99	2562	4
100812	10:20	6	2.3.blue	100	4113	6
100812	10:20	6	1.1.nuv	101	4211	3
100812	10:20	6	2.3.star	102	2217	7
100812	10:20	6	1.5.syg	103	2118	3
100812	10:20	6	1.2.zoke	104	3511	4
100812	10:20	6	1.2.xad	105	1649	4
100812	10:20	6	1.1.bryg	106	3172	3
100812	10:20	6	1.5.bih	107	2116	4
100812	10:20	6	2.3.time	108	1613	5
100812	10:20	6	1.4.voom	109	2313	5
100812	10:20	6	2.4.lump	110	2531	4
100812	10:20	6	2.4.moon	111	2731	7
100812	10:20	6	1.6.nilo	112	1620	5
100812	10:20	6	1.1.mur	113	1585	4
100812	10:20	6	2.1.fur	114	1919	7
100812	10:20	6	1.1.ghun	115	2232	3
100812	10:20	6	1.4.yoof	116	1460	4
100812	10:20	6	1.5.jufe	117	1920	4
100812	10:20	6	1.3.tove	118	2761	3
100812	10:20	6	1.2.dax	119	1265	3
100812	10:20	6	2.2.leap	120	4179	7
100912	10:58	6	speed	1	2180	50
100912	10:58	6	error	2	4409	92
100912	10:58	6	whichhand	3	7592	Right
100912	10:58	6	2.5.art	1	10554	7
100912	10:58	6	1.4.moob	2	2893	3
100912	10:58	6	2.1.bug	3	3407	5
100912	10:58	6	2.6.cat	4	3877	2
100912	10:58	6	2.2.sick	5	3064	3
100912	10:58	6	1.4.boog	6	2444	5
100912	10:58	6	1.3.yome	7	2952	6
100912	10:58	6	1.6.joi	8	4280	3
100912	10:58	6	1.6.soog	9	3155	6
100912	10:58	6	2.2.slow	10	3723	3
100912	10:58	6	1.6.vook	11	1485	5
100912	10:58	6	2.3.obey	12	2007	2
100912	10:58	6	2.4.dump	13	2388	5
100912	10:58	6	2.5.unit	14	2019	7
100912	10:58	6	1.1.vuy	15	2769	4
100912	10:58	6	2.5.fat	16	3159	3
100912	10:58	6	2.6.evil	17	4592	9
100912	10:58	6	2.1.thy	18	4927	9
100912	10:58	6	2.5.bus	19	2273	7
100912	10:58	6	2.5.non	20	2508	7
100912	10:58	6	1.5.fuw	21	3246	5
100912	10:58	6	2.2.cake	22	2570	4
100912	10:58	6	1.4.voom	23	3225	6
100912	10:58	6	1.6.lim	24	1254	4
100912	10:58	6	2.6.milk	25	1146	6
100912	10:58	6	1.6.dofe	26	1153	3
100912	10:58	6	1.6.zote	27	1617	4
100912	10:58	6	2.4.free	28	1757	6
100912	10:58	6	2.2.leap	29	1605	7
100912	10:58	6	2.5.boy	30	3011	8
100912	10:58	6	2.3.time	31	1057	8
100912	10:58	6	2.2.sex	32	3148	4
100912	10:58	6	2.1.thus	33	2836	9
100912	10:58	6	1.4.foob	34	1625	3
100912	10:58	6	2.6.dog	35	1318	9
100912	10:58	6	2.4.body	36	2318	7
100912	10:58	6	1.2.lalo	37	1952	4
100912	10:58	6	2.2.slid	38	1895	5
100912	10:58	6	1.3.yave	39	1081	5
100912	10:58	6	1.1.gub	40	1715	4
100912	10:58	6	2.1.fun	41	1828	8
100912	10:58	6	1.3.tove	42	1937	6
100912	10:58	6	1.6.vape	43	3297	2
100912	10:58	6	2.4.nude	44	3051	6
100912	10:58	6	1.2.zape	45	1399	5
100912	10:58	6	1.3.vabe	46	1109	5
100912	10:58	6	1.2.lale	47	1134	5
100912	10:58	6	1.3.tage	48	1374	4
100912	10:58	6	2.3.hate	49	3445	3
100912	10:58	6	2.4.moon	50	1649	8
100912	10:58	6	2.3.star	51	1229	9
100912	10:58	6	1.5.zyr	52	2705	6
100912	10:58	6	2.1.rut	53	1930	4
100912	10:58	6	1.5.vaf	54	1291	3
100912	10:58	6	1.2.leel	55	1445	2
100912	10:58	6	2.1.buy	56	1392	8
100912	10:58	6	2.5.bomb	57	2391	4
100912	10:58	6	1.1.ryng	58	1853	4
100912	10:58	6	2.5.bar	59	2128	9
100912	10:58	6	2.1.guy	60	1705	8
100912	10:58	6	1.5.syg	61	1267	6
100912	10:58	6	1.1.vun	62	1445	4
100912	10:58	6	1.4.teef	63	1841	8
100912	10:58	6	2.3.knot	64	2125	6
100912	10:58	6	1.5.tutk	65	1894	5
100912	10:58	6	1.4.yeeb	66	1369	4
100912	10:58	6	1.1.fryn	67	1727	2
100912	10:58	6	1.1.guf	68	1608	4
100912	10:58	6	1.5.jufe	69	1462	7
100912	10:58	6	2.6.dark	70	2281	4
100912	10:58	6	1.3.anay	71	3315	5
100912	10:58	6	1.2.xad	72	1661	4
100912	10:58	6	1.6.nilo	73	1120	3
100912	10:58	6	2.3.name	74	1497	8
100912	10:58	6	1.3.mobe	75	4042	4
100912	10:58	6	2.1.fur	76	1327	5
100912	10:58	6	1.6.kabe	77	1632	4
100912	10:58	6	2.6.slit	78	1468	5
100912	10:58	6	1.2.zoke	79	6535	6
100912	10:58	6	1.3.jofe	80	2369	5
100912	10:58	6	2.6.scar	81	1584	3
100912	10:58	6	1.4.toof	82	2046	4
100912	10:58	6	1.5.yeb	83	1298	3
100912	10:58	6	2.4.lump	84	2387	4
100912	10:58	6	1.5.jaj	85	2034	5
100912	10:58	6	1.4.yoof	86	2926	5
100912	10:58	6	1.4.moof	87	1648	3
100912	10:58	6	2.4.foam	88	2947	8
100912	10:58	6	2.3.hard	89	3395	7
100912	10:58	6	1.5.feg	90	2041	5
100912	10:58	6	1.2.zeed	91	1325	4
100912	10:58	6	2.5.grin	92	2350	8
100912	10:58	6	1.4.noof	93	1758	3
100912	10:58	6	1.2.zake	94	926	5
100912	10:58	6	2.1.rug	95	1382	7
100912	10:58	6	2.2.cell	96	1813	8
100912	10:58	6	2.2.dead	97	1562	9
100912	10:58	6	2.2.lids	98	1737	8
100912	10:58	6	2.4.part	99	1241	9
100912	10:58	6	2.3.blue	100	1253	9
100912	10:58	6	2.2.lop	101	1649	3
100912	10:58	6	1.1.nuv	102	1820	3
100912	10:58	6	2.1.but	103	2249	8
100912	10:58	6	2.5.arm	104	2093	9
