date	time	subject	trialcode	trialnum	latency	response
110112	13:11	54687	speed	1	4296	26
110112	13:11	54687	error	2	4775	96%
110112	13:11	54687	whichhand	3	22510	right_left 
110112	13:11	54687	1.6.vape	1	9243	1
110112	13:11	54687	1.5.syg	2	7985	2
110112	13:11	54687	2.3.time	3	8761	5
110112	13:11	54687	1.5.feg	4	5610	6
110112	13:11	54687	1.1.fryn	5	2896	1
110112	13:11	54687	2.2.sex	6	3122	8
110112	13:11	54687	2.1.rug	7	2148	9
110112	13:11	54687	2.6.dark	8	2859	6
110112	13:11	54687	1.4.noof	9	1991	6
110112	13:11	54687	1.6.soog	10	2126	3
110112	13:11	54687	2.4.flag	11	1951	5
110112	13:11	54687	2.6.evil	12	1110	5
110112	13:11	54687	2.4.tidy	13	1024	6
110112	13:11	54687	1.1.vuy	14	6660	2
110112	13:11	54687	2.3.star	15	1233	9
110112	13:11	54687	2.3.knot	16	2549	4
110112	13:11	54687	1.2.zape	17	3205	1
110112	13:11	54687	1.6.lim	18	1346	6
110112	13:11	54687	1.5.jufe	19	1114	5
110112	13:11	54687	1.4.foob	20	1811	8
110112	13:11	54687	1.3.mobe	21	1152	6
110112	13:11	54687	1.5.fuw	22	1224	5
110112	13:11	54687	1.4.yoof	23	1101	5
110112	13:11	54687	1.4.voom	24	1558	5
110112	13:11	54687	1.5.zyr	25	1869	3
110112	13:11	54687	2.2.sick	26	1784	9
110112	13:11	54687	2.3.hard	27	1630	9
110112	13:11	54687	1.2.dax	28	1187	9
110112	13:11	54687	1.4.boog	29	1201	6
110112	13:11	54687	2.6.milk	30	1110	9
110112	13:11	54687	1.1.nuv	31	1816	5
110112	13:11	54687	1.6.nilo	32	613	6
110112	13:11	54687	2.1.bug	33	1088	4
110112	13:11	54687	2.2.slid	34	1267	5
110112	13:11	54687	2.1.fun	35	862	6
110112	13:11	54687	1.6.dofe	36	1072	7
110112	13:11	54687	2.2.lop	37	1379	4
110112	13:11	54687	2.1.thus	38	825	5
110112	13:11	54687	2.6.mask	39	902	6
110112	13:11	54687	1.1.bryg	40	1143	7
110112	13:11	54687	2.1.guy	41	911	5
110112	13:11	54687	1.4.yeeb	42	801	6
110112	13:11	54687	1.6.zote	43	614	6
110112	13:11	54687	1.5.bih	44	850	6
110112	13:11	54687	1.1.ryng	45	1014	7
110112	13:11	54687	2.3.more	46	1410	9
110112	13:11	54687	2.1.fur	47	1344	9
110112	13:11	54687	2.5.bomb	48	440	9
110112	13:11	54687	2.5.bar	49	1388	8
110112	13:11	54687	1.5.jaj	50	1098	9
110112	13:11	54687	1.6.kabe	51	955	9
110112	13:11	54687	1.3.yave	52	954	9
110112	13:11	54687	1.2.zoke	53	714	9
110112	13:11	54687	1.6.joi	54	1274	5
110112	13:11	54687	1.3.vabe	55	1045	4
110112	13:11	54687	1.3.anay	56	1032	3
110112	13:11	54687	1.3.jafe	57	996	7
110112	13:11	54687	1.2.likk	58	3026	7
110112	13:11	54687	1.5.vaf	59	1103	5
110112	13:11	54687	2.4.body	60	448	5
110112	13:11	54687	2.1.rut	61	1379	8
110112	13:11	54687	1.1.mur	62	1129	6
110112	13:11	54687	1.5.yeb	63	601	6
110112	13:11	54687	2.5.unit	64	1526	5
110112	13:11	54687	2.6.cat	65	743	8
110112	13:11	54687	1.6.celm	66	1463	9
110112	13:11	54687	2.5.boy	67	906	9
110112	13:11	54687	1.2.lalo	68	1131	4
110112	13:11	54687	1.4.teef	69	3995	4
110112	13:11	54687	1.5.tutk	70	1377	5
110112	13:11	54687	1.2.lale	71	1104	6
110112	13:11	54687	2.5.art	72	849	6
110112	13:11	54687	2.3.obey	73	1157	7
110112	13:11	54687	1.1.ghun	74	1076	8
110112	13:11	54687	2.5.non	75	903	9
110112	13:11	54687	2.4.part	76	1232	9
110112	13:11	54687	2.2.dead	77	468	9
110112	13:11	54687	2.2.leap	78	1342	5
110112	13:11	54687	2.3.yore	79	847	4
110112	13:11	54687	1.1.guf	80	666	9
110112	13:11	54687	1.3.jofe	81	748	9
110112	13:11	54687	2.4.nude	82	1092	9
110112	13:11	54687	2.1.buy	83	1878	9
110112	13:11	54687	1.4.toof	84	2953	4
110112	13:11	54687	2.5.bus	85	4505	4
110112	13:11	54687	2.2.slow	86	2123	6
110112	13:11	54687	1.4.moob	87	459	6
110112	13:11	54687	2.4.moon	88	4519	7
110112	13:11	54687	1.3.tage	89	4337	7
110112	13:11	54687	2.6.pain	90	3402	7
110112	13:11	54687	2.4.foam	91	1584	5
110112	13:11	54687	2.1.thy	92	1575	4
110112	13:11	54687	2.6.kin	93	1501	5
110112	13:11	54687	2.5.grin	94	1263	9
110112	13:11	54687	2.6.dog	95	794	5
110112	13:11	54687	2.3.name	96	2263	7
110112	13:11	54687	1.3.yome	97	1906	8
110112	13:11	54687	1.6.vook	98	1348	9
110112	13:11	54687	2.1.but	99	771	6
110112	13:11	54687	2.2.cell	100	1698	9
110112	13:11	54687	2.4.free	101	1356	5
110112	13:11	54687	1.1.gub	102	2667	4
110112	13:11	54687	1.4.moof	103	2766	6
110112	13:11	54687	2.6.slit	104	494	6
110112	13:11	54687	2.4.lump	105	278	6
110112	13:11	54687	2.5.fat	106	1329	5
110112	13:11	54687	1.1.vun	107	1305	7
110112	13:11	54687	2.5.arm	108	1883	9
110112	13:11	54687	1.2.leel	109	3125	4
110112	13:11	54687	1.3.yane	110	1358	1
110112	13:11	54687	2.4.dump	111	806	2
110112	13:11	54687	2.2.cake	112	1123	3
110112	13:11	54687	1.3.tove	113	4180	3
110112	13:11	54687	1.2.xad	114	2251	1
110112	13:11	54687	2.6.scar	115	1198	5
110112	13:11	54687	2.3.hate	116	1356	6
110112	13:11	54687	1.2.zeed	117	907	7
110112	13:11	54687	1.2.zake	118	1692	7
110112	13:11	54687	2.2.lids	119	983	7
110112	13:11	54687	2.3.blue	120	1269	4
110112	14:23	2114788	speed	1	2729	39
110112	14:23	2114788	error	2	4156	89%
110112	14:23	2114788	whichhand	3	13229	Left
110112	14:23	2114788	1.3.jofe	1	7288	5
110112	14:23	2114788	1.2.xad	2	2772	5
110112	14:23	2114788	2.6.slit	3	2844	4
110112	14:23	2114788	1.3.tove	4	1680	5
110112	14:23	2114788	1.3.mobe	5	1483	4
110112	14:23	2114788	1.4.toof	6	2413	5
110112	14:23	2114788	2.2.dead	7	2194	3
110112	14:23	2114788	2.4.flag	8	1584	7
110112	14:23	2114788	1.6.kabe	9	1103	5
110112	14:23	2114788	2.1.rug	10	1608	6
110112	14:23	2114788	2.2.lids	11	1317	6
110112	14:23	2114788	2.3.blue	12	2198	7
110112	14:23	2114788	1.3.anay	13	1260	5
110112	14:23	2114788	2.5.boy	14	1536	7
110112	14:23	2114788	2.4.foam	15	1567	6
110112	14:23	2114788	2.3.time	16	1806	7
110112	14:23	2114788	1.4.voom	17	1348	5
110112	14:23	2114788	1.6.zote	18	1283	4
110112	14:23	2114788	1.2.zeed	19	1141	5
110112	14:23	2114788	1.6.celm	20	1118	5
110112	14:23	2114788	1.2.leel	21	702	5
110112	14:23	2114788	2.3.star	22	1647	7
110112	14:23	2114788	2.6.dark	23	1779	4
110112	14:23	2114788	1.4.foob	24	961	5
110112	14:23	2114788	2.3.knot	25	1552	6
110112	14:23	2114788	1.4.boog	26	800	5
110112	14:23	2114788	1.6.joi	27	725	5
110112	14:23	2114788	2.4.nude	28	1894	4
110112	14:23	2114788	1.1.mur	29	920	5
110112	14:23	2114788	2.1.buy	30	1681	7
110112	14:23	2114788	2.3.hard	31	1803	7
110112	14:23	2114788	1.2.likk	32	800	5
110112	14:23	2114788	1.5.tutk	33	782	5
110112	14:23	2114788	2.1.guy	34	1844	6
110112	14:23	2114788	1.5.feg	35	984	5
110112	14:23	2114788	2.1.fur	36	1478	6
110112	14:23	2114788	2.4.free	37	1785	9
110112	14:23	2114788	2.2.sex	38	1455	6
110112	14:23	2114788	1.2.zake	39	970	5
110112	14:23	2114788	1.6.soog	40	2337	5
110112	14:23	2114788	2.6.dog	41	2434	9
110112	14:23	2114788	2.2.slid	42	1638	5
110112	14:23	2114788	1.1.ghun	43	650	5
110112	14:23	2114788	2.3.hate	44	1741	4
110112	14:23	2114788	1.5.fuw	45	917	5
110112	14:23	2114788	2.1.thy	46	614	5
110112	14:23	2114788	2.4.dump	47	2251	4
110112	14:23	2114788	1.1.vuy	48	1006	5
110112	14:23	2114788	2.3.obey	49	3156	4
110112	14:23	2114788	1.5.vaf	50	2652	5
110112	14:23	2114788	2.5.grin	51	544	5
110112	14:23	2114788	2.3.yore	52	768	5
110112	14:23	2114788	1.6.nilo	53	638	5
110112	14:23	2114788	1.3.yave	54	642	5
110112	14:23	2114788	2.6.mask	55	3342	6
110112	14:23	2114788	2.5.bar	56	1847	3
110112	14:23	2114788	1.6.vape	57	1402	5
110112	14:23	2114788	2.1.bug	58	3103	5
110112	14:23	2114788	1.3.yome	59	762	5
110112	14:23	2114788	1.1.guf	60	641	5
110112	14:23	2114788	1.2.lalo	61	1157	5
110112	14:23	2114788	2.4.part	62	1708	6
110112	14:23	2114788	1.6.lim	63	878	5
110112	14:23	2114788	2.6.cat	64	3080	8
110112	14:23	2114788	1.2.dax	65	1011	5
110112	14:23	2114788	2.1.rut	66	784	5
110112	14:23	2114788	1.3.tage	67	990	5
110112	14:23	2114788	2.4.tidy	68	740	5
110112	14:23	2114788	2.5.bomb	69	3172	2
110112	14:23	2114788	1.5.yeb	70	891	5
110112	14:23	2114788	1.4.yeeb	71	1214	5
110112	14:23	2114788	1.1.fryn	72	1458	5
110112	14:23	2114788	2.4.body	73	3790	5
110112	14:23	2114788	1.5.jaj	74	861	5
110112	14:23	2114788	2.6.evil	75	2784	3
110112	14:23	2114788	1.1.vun	76	806	5
110112	14:23	2114788	1.1.nuv	77	612	5
110112	14:23	2114788	2.1.thus	78	609	5
110112	14:23	2114788	2.5.bus	79	1862	6
110112	14:23	2114788	1.4.yoof	80	777	5
110112	14:23	2114788	2.5.fat	81	520	5
110112	14:23	2114788	1.3.yane	82	576	5
110112	14:23	2114788	2.1.fun	83	2039	8
110112	14:23	2114788	2.4.lump	84	2011	4
110112	14:23	2114788	1.6.vook	85	921	5
110112	14:23	2114788	2.2.cell	86	4521	5
110112	14:23	2114788	1.1.gub	87	507	5
110112	14:23	2114788	1.5.jufe	88	596	5
110112	14:23	2114788	2.5.arm	89	1426	5
110112	14:23	2114788	1.4.moof	90	678	5
110112	14:23	2114788	1.5.zyr	91	649	5
110112	14:23	2114788	2.2.cake	92	564	5
110112	14:23	2114788	1.1.bryg	93	627	5
110112	14:23	2114788	2.2.sick	94	559	5
110112	14:23	2114788	2.4.moon	95	2094	7
110112	14:23	2114788	2.1.but	96	1505	5
110112	14:23	2114788	2.3.more	97	1634	7
110112	14:23	2114788	1.5.syg	98	734	5
110112	14:23	2114788	1.5.bih	99	622	5
110112	14:23	2114788	1.4.teef	100	627	5
110112	14:23	2114788	2.6.kin	101	679	5
110112	14:23	2114788	2.2.leap	102	2097	7
110112	14:23	2114788	1.2.zape	103	723	5
110112	14:23	2114788	2.2.lop	104	571	5
110112	14:23	2114788	1.2.zoke	105	562	5
110112	14:23	2114788	2.3.name	106	1376	5
110112	14:23	2114788	1.4.moob	107	855	5
110112	14:23	2114788	2.2.slow	108	538	5
110112	14:23	2114788	1.3.jafe	109	586	5
110112	14:23	2114788	2.6.milk	110	2144	6
110112	14:23	2114788	1.2.lale	111	689	5
110112	14:23	2114788	1.3.vabe	112	683	5
110112	14:23	2114788	2.5.unit	113	948	5
110112	14:23	2114788	1.6.dofe	114	1196	5
110112	14:23	2114788	1.1.ryng	115	721	5
110112	14:23	2114788	2.6.pain	116	1842	4
110112	14:23	2114788	2.5.art	117	1966	7
110112	14:23	2114788	2.6.scar	118	2517	4
110112	14:23	2114788	2.5.non	119	1470	5
110112	14:23	2114788	1.4.noof	120	1153	5
110612	14:30	50	speed	1	4830	40
110612	14:30	50	error	2	2375	97
110612	14:30	50	whichhand	3	9921	Right.
110612	14:30	50	1.2.xad	1	7443	3
110612	14:30	50	2.1.buy	2	1752	6
110612	14:30	50	1.1.nuv	3	1880	4
110612	14:30	50	1.1.vun	4	1611	4
110612	14:30	50	1.3.jofe	5	2816	5
110612	14:30	50	2.2.leap	6	1445	6
110612	14:30	50	2.2.sex	7	2113	5
110612	14:30	50	2.5.art	8	3642	8
110612	14:30	50	2.4.flag	9	1751	6
110612	14:30	50	2.6.dark	10	1622	6
110612	14:30	50	1.2.zape	11	2035	7
110612	14:30	50	1.4.teef	12	4039	4
110612	14:30	50	1.4.moob	13	1293	4
110612	14:30	50	2.1.bug	14	3278	8
110612	14:30	50	2.6.pain	15	2505	6
110612	14:30	50	2.1.fun	16	2499	9
110612	14:30	50	2.1.but	17	1620	8
110612	14:30	50	2.5.bomb	18	2465	4
110612	14:30	50	1.1.ghun	19	2091	4
110612	14:30	50	1.3.tage	20	4542	3
110612	14:30	50	1.5.feg	21	1479	3
110612	14:30	50	1.1.bryg	22	1385	2
110612	14:30	50	2.5.arm	23	2583	7
110612	14:30	50	2.6.milk	24	2134	6
110612	14:30	50	1.5.tutk	25	3238	7
110612	14:30	50	1.1.vuy	26	2539	4
110612	14:30	50	2.4.body	27	1619	6
110612	14:30	50	2.1.thus	28	1848	6
110612	14:30	50	2.6.dog	29	1628	9
110612	14:30	50	2.6.evil	30	2824	4
110612	14:30	50	1.4.voom	31	3510	8
110612	14:30	50	2.4.moon	32	1192	8
110612	14:30	50	1.2.zake	33	2734	1
110612	14:30	50	2.1.rut	34	1262	2
110612	14:30	50	1.3.mobe	35	1377	3
110612	14:30	50	2.4.part	36	1688	5
110612	14:30	50	2.5.fat	37	2603	5
110612	14:30	50	1.1.ryng	38	1864	4
110612	14:30	50	2.5.unit	39	6115	6
110612	14:30	50	1.4.moof	40	3613	6
110612	14:30	50	2.3.obey	41	2083	5
110612	14:30	50	1.6.vook	42	2509	6
110612	14:30	50	2.1.guy	43	2343	6
110612	14:30	50	1.5.jufe	44	3799	4
110612	14:30	50	1.6.zote	45	1333	7
110612	14:30	50	1.1.fryn	46	2310	3
110612	14:30	50	1.6.celm	47	1496	4
110612	14:30	50	2.4.tidy	48	3993	8
110612	14:30	50	1.4.toof	49	3512	5
110612	14:30	50	2.2.sick	50	2321	5
110612	14:30	50	2.6.cat	51	2002	9
110612	14:30	50	1.5.bih	52	1536	4
110612	14:30	50	1.2.zeed	53	1536	6
110612	14:30	50	2.4.foam	54	1392	5
110612	14:30	50	1.3.anay	55	1807	3
110612	14:30	50	1.1.gub	56	1332	2
110612	14:30	50	2.4.nude	57	2148	6
110612	14:30	50	1.4.yoof	58	2724	4
110612	14:30	50	1.6.joi	59	2965	7
110612	14:30	50	2.6.kin	60	2613	4
110612	14:30	50	1.3.yome	61	1786	4
110612	14:30	50	2.5.bar	62	2816	5
110612	14:30	50	2.3.name	63	2765	8
110612	14:30	50	2.6.slit	64	2373	4
110612	14:30	50	1.4.noof	65	1564	3
110612	14:30	50	2.6.mask	66	2082	9
110612	14:30	50	1.1.guf	67	1445	4
110612	14:30	50	1.4.yeeb	68	2889	3
110612	14:30	50	2.2.lop	69	1292	3
110612	14:30	50	2.5.boy	70	12510	6
110612	14:30	50	2.4.lump	71	1786	5
110612	14:30	50	1.2.dax	72	1504	4
110612	14:30	50	1.5.zyr	73	1722	2
110612	14:30	50	1.2.zoke	74	5251	5
110612	14:30	50	1.5.jaj	75	3319	6
110612	14:30	50	2.1.rug	76	4585	7
110612	14:30	50	2.1.fur	77	2144	8
110612	14:30	50	1.4.foob	78	1536	4
110612	14:30	50	1.2.lalo	79	3344	6
110612	14:30	50	2.2.slow	80	1344	5
110612	14:30	50	1.5.fuw	81	2056	4
110612	14:30	50	2.3.hate	82	2276	3
110612	14:30	50	2.3.time	83	2311	5
110612	14:30	50	2.4.dump	84	1729	5
110612	14:30	50	2.3.knot	85	2377	4
110612	14:30	50	1.6.dofe	86	840	4
110612	14:30	50	1.3.yave	87	1060	3
110612	14:30	50	1.6.kabe	88	2184	5
110612	14:30	50	1.6.soog	89	1838	2
110612	14:30	50	2.5.bus	90	1626	7
110612	14:30	50	1.6.nilo	91	1767	1
110612	14:30	50	2.3.blue	92	1814	9
110612	14:30	50	1.1.mur	93	2371	4
110612	14:30	50	2.5.non	94	1794	3
110612	14:30	50	2.3.star	95	3200	9
110612	14:30	50	1.2.lale	96	2030	3
110612	14:30	50	1.5.yeb	97	1066	2
110612	14:30	50	2.5.grin	98	1581	6
110612	14:30	50	2.3.more	99	2988	7
110612	14:30	50	1.4.boog	100	1994	6
110612	14:30	50	2.1.thy	101	2392	5
110612	14:30	50	1.3.vabe	102	2111	2
110612	14:30	50	1.2.likk	103	1713	2
110612	14:30	50	2.2.lids	104	2513	5
110612	14:30	50	1.3.yane	105	5003	4
110612	14:30	50	1.3.jafe	106	1897	4
110612	14:30	50	2.6.scar	107	1899	6
110612	14:30	50	1.5.vaf	108	1828	3
110612	14:30	50	2.2.cake	109	2137	9
110612	14:30	50	1.6.lim	110	1913	3
110612	14:30	50	2.4.free	111	2146	9
110612	14:30	50	2.2.cell	112	2450	7
110612	14:30	50	2.2.dead	113	1909	3
110612	14:30	50	2.3.yore	114	2023	2
110612	14:30	50	2.3.hard	115	2756	5
110612	14:30	50	1.6.vape	116	5476	4
110612	14:30	50	1.3.tove	117	1784	4
110612	14:30	50	1.5.syg	118	1942	3
110612	14:30	50	1.2.leel	119	1567	7
110612	14:30	50	2.2.slid	120	1749	6
