date	time	subject	trialcode	trialnum	latency	response
100112	15:12	18129259289	speed	1	4654	39
100112	15:12	18129259289	error	2	4779	80
100112	15:12	18129259289	whichhand	3	9618	right
100112	15:12	18129259289	2.2.sex	1	7951	5
100112	15:12	18129259289	2.5.non	2	2694	1
100112	15:12	18129259289	1.1.guf	3	2641	1
100112	15:12	18129259289	1.2.zoke	4	2301	2
100112	15:12	18129259289	1.3.jofe	5	4887	5
100112	15:12	18129259289	2.5.bus	6	1906	3
100112	15:12	18129259289	2.6.dark	7	4908	1
100112	15:12	18129259289	1.2.dax	8	2231	6
100112	15:12	18129259289	1.1.gub	9	3779	4
100112	15:12	18129259289	2.1.buy	10	3362	6
100112	15:12	18129259289	1.3.yome	11	1738	3
100112	15:12	18129259289	2.6.cat	12	4386	2
100112	15:12	18129259289	2.4.lump	13	4098	2
100112	15:12	18129259289	1.4.toof	14	4828	2
100112	15:12	18129259289	2.5.boy	15	3241	6
100112	15:12	18129259289	1.5.feg	16	2558	5
100112	15:12	18129259289	1.2.zape	17	4854	2
100112	15:12	18129259289	2.1.thus	18	2443	6
100112	15:12	18129259289	1.5.jaj	19	2383	4
100112	15:12	18129259289	1.6.vape	20	1462	4
100112	15:12	18129259289	2.6.mask	21	3009	8
100112	15:12	18129259289	2.3.blue	22	1575	8
100112	15:12	18129259289	1.3.mobe	23	2118	5
100112	15:12	18129259289	2.2.sick	24	2495	3
100112	15:12	18129259289	2.3.star	25	1657	8
100112	15:12	18129259289	1.4.yoof	26	1829	3
100112	15:12	18129259289	1.6.lim	27	1033	3
100112	15:12	18129259289	1.2.likk	28	3189	7
100112	15:12	18129259289	2.2.cell	29	1756	8
100112	15:12	18129259289	2.1.fur	30	1722	8
100112	15:12	18129259289	2.5.bomb	31	1828	1
100112	15:12	18129259289	1.4.noof	32	2185	4
100112	15:12	18129259289	1.4.foob	33	1151	3
100112	15:12	18129259289	1.6.soog	34	990	3
100112	15:12	18129259289	2.3.hard	35	4269	6
100112	15:12	18129259289	2.2.cake	36	4969	5
100112	15:12	18129259289	1.5.fuw	37	2009	4
100112	15:12	18129259289	2.2.slow	38	2182	8
100112	15:12	18129259289	1.2.zake	39	2685	2
100112	15:12	18129259289	1.1.fryn	40	1640	2
100112	15:12	18129259289	1.1.ryng	41	1084	4
100112	15:12	18129259289	1.5.zyr	42	1118	4
100112	15:12	18129259289	2.3.knot	43	2887	2
100112	15:12	18129259289	1.3.yave	44	1297	5
100112	15:12	18129259289	2.5.art	45	1875	9
100112	15:12	18129259289	1.6.zote	46	2030	6
100112	15:12	18129259289	1.6.kabe	47	1530	2
100112	15:12	18129259289	2.6.scar	48	2667	1
100112	15:12	18129259289	1.3.vabe	49	1870	5
100112	15:12	18129259289	1.4.boog	50	1377	5
100112	15:12	18129259289	2.6.pain	51	5216	6
100112	15:12	18129259289	2.4.body	52	2726	7
100112	15:12	18129259289	1.5.vaf	53	1271	3
100112	15:12	18129259289	1.4.voom	54	1218	5
100112	15:12	18129259289	2.4.moon	55	1783	8
100112	15:12	18129259289	2.5.grin	56	1605	9
100112	15:12	18129259289	2.5.arm	57	1427	9
100112	15:12	18129259289	2.5.bar	58	1672	9
100112	15:12	18129259289	1.1.vun	59	1691	3
100112	15:12	18129259289	1.2.xad	60	1717	6
100112	15:12	18129259289	1.5.jufe	61	1758	6
100112	15:12	18129259289	1.2.lalo	62	1542	6
100112	15:12	18129259289	2.5.fat	63	1246	6
100112	15:12	18129259289	1.5.yeb	64	1009	5
100112	15:12	18129259289	2.4.dump	65	1279	7
100112	15:12	18129259289	1.5.syg	66	1401	4
100112	15:12	18129259289	2.6.kin	67	3126	4
100112	15:12	18129259289	1.4.yeeb	68	1560	3
100112	15:12	18129259289	1.4.moof	69	1631	3
100112	15:12	18129259289	2.1.guy	70	1828	8
100112	15:12	18129259289	1.5.bih	71	1505	5
100112	15:12	18129259289	2.2.leap	72	682	5
100112	15:12	18129259289	1.3.yane	73	716	5
100112	15:12	18129259289	2.6.evil	74	2461	1
100112	15:12	18129259289	1.1.bryg	75	1601	6
100112	15:12	18129259289	1.1.ghun	76	1286	4
100112	15:12	18129259289	1.2.zeed	77	1464	3
100112	15:12	18129259289	1.5.tutk	78	1163	7
100112	15:12	18129259289	1.3.anay	79	1362	6
100112	15:12	18129259289	1.4.moob	80	1409	2
100112	15:12	18129259289	2.3.name	81	2631	9
100112	15:12	18129259289	1.6.vook	82	2035	1
100112	15:12	18129259289	2.2.lids	83	2111	8
100112	15:12	18129259289	1.2.leel	84	1273	7
100112	15:12	18129259289	2.6.milk	85	1403	9
100112	15:12	18129259289	2.2.dead	86	2097	1
100112	15:12	18129259289	2.3.time	87	2515	9
100112	15:12	18129259289	1.1.mur	88	1260	5
100112	15:12	18129259289	2.4.free	89	1896	9
100112	15:12	18129259289	2.5.unit	90	3113	7
100112	15:12	18129259289	2.6.slit	91	7643	1
100112	15:12	18129259289	2.1.thy	92	3576	6
100112	15:12	18129259289	1.6.joi	93	720	6
100112	15:12	18129259289	2.1.rug	94	2833	4
100112	15:12	18129259289	2.3.more	95	981	5
100112	15:12	18129259289	1.3.jafe	96	1859	7
100112	15:12	18129259289	2.3.hate	97	895	3
100112	15:12	18129259289	2.1.rut	98	3832	6
100112	15:12	18129259289	2.4.nude	99	1805	6
100112	15:12	18129259289	2.1.bug	100	1787	1
100112	15:12	18129259289	1.4.teef	101	1761	4
100112	15:12	18129259289	1.6.dofe	102	1057	5
100112	15:12	18129259289	1.6.nilo	103	1564	6
100112	15:12	18129259289	2.4.part	104	1499	7
100112	15:12	18129259289	2.4.flag	105	5732	5
100112	15:12	18129259289	1.6.celm	106	854	6
100112	15:12	18129259289	2.3.obey	107	2625	6
100112	15:12	18129259289	1.1.nuv	108	790	7
100112	15:12	18129259289	2.1.fun	109	820	3
100112	15:12	18129259289	2.2.lop	110	1225	7
100112	15:12	18129259289	2.2.slid	111	2022	3
100112	15:12	18129259289	1.3.tove	112	3067	6
100112	15:12	18129259289	2.4.foam	113	623	7
100112	15:12	18129259289	2.6.dog	114	1147	7
100112	15:12	18129259289	2.3.yore	115	987	6
100112	15:12	18129259289	1.1.vuy	116	697	6
100112	15:12	18129259289	1.3.tage	117	1226	5
100112	15:12	18129259289	2.1.but	118	1247	4
100112	15:12	18129259289	2.4.tidy	119	2426	9
100112	15:12	18129259289	1.2.lale	120	2511	6
101112	11:43	5567	speed	1	5708	29
101112	11:43	5567	error	2	4218	100
101112	11:43	5567	whichhand	3	20496	right
101112	11:43	5567	1.1.bryg	1	12300	2
101112	11:43	5567	1.4.yeeb	2	4057	6
101112	11:43	5567	2.6.pain	3	2814	1
101112	11:43	5567	1.3.anay	4	8083	5
101112	11:43	5567	2.2.slid	5	3447	3
101112	11:43	5567	1.3.yave	6	3356	6
101112	11:43	5567	2.4.dump	7	2476	4
101112	11:43	5567	2.5.fat	8	3479	2
101112	11:43	5567	2.2.lop	9	2658	5
101112	11:43	5567	2.2.sick	10	1878	1
101112	11:43	5567	1.5.feg	11	4168	5
101112	11:43	5567	1.4.voom	12	3169	8
101112	11:43	5567	2.2.dead	13	1536	1
101112	11:43	5567	1.1.guf	14	4408	5
101112	11:43	5567	1.2.zake	15	4591	6
101112	11:43	5567	2.4.moon	16	4806	6
101112	11:43	5567	2.2.sex	17	4349	9
101112	11:43	5567	1.3.tage	18	4014	6
101112	11:43	5567	2.5.grin	19	3275	5
101112	11:43	5567	1.1.fryn	20	4663	5
101112	11:43	5567	1.5.jaj	21	3347	6
101112	11:43	5567	2.5.bomb	22	2843	1
101112	11:43	5567	1.3.yane	23	4032	5
101112	11:43	5567	1.5.bih	24	2245	5
101112	11:43	5567	2.3.obey	25	3729	1
101112	11:43	5567	2.3.hard	26	11465	5
101112	11:43	5567	1.2.xad	27	5392	5
101112	11:43	5567	1.4.moob	28	2872	4
101112	11:43	5567	1.2.dax	29	2435	4
101112	11:43	5567	2.6.kin	30	3016	5
101112	11:43	5567	1.3.jafe	31	1813	5
101112	11:43	5567	2.3.time	32	2842	6
101112	11:43	5567	1.6.vook	33	2319	5
101112	11:43	5567	2.5.art	34	4584	7
101112	11:43	5567	1.5.syg	35	5607	5
101112	11:43	5567	1.5.yeb	36	1918	5
101112	11:43	5567	1.1.ryng	37	5439	6
101112	11:43	5567	2.6.scar	38	3173	2
101112	11:43	5567	1.1.vuy	39	1900	5
101112	11:43	5567	2.1.thus	40	4590	6
101112	11:43	5567	1.3.vabe	41	2469	5
101112	11:43	5567	1.6.soog	42	1928	5
101112	11:43	5567	1.6.zote	43	1744	6
101112	11:43	5567	1.1.mur	44	3256	6
101112	11:43	5567	1.2.zoke	45	1677	5
101112	11:43	5567	1.5.vaf	46	1048	5
101112	11:43	5567	2.5.bus	47	4490	3
101112	11:43	5567	1.3.yome	48	1702	5
101112	11:43	5567	2.4.lump	49	2679	5
101112	11:43	5567	2.6.mask	50	5080	5
101112	11:43	5567	1.2.leel	51	2675	4
101112	11:43	5567	2.1.buy	52	2549	9
101112	11:43	5567	1.6.kabe	53	3541	5
101112	11:43	5567	2.1.fun	54	1574	9
101112	11:43	5567	2.1.thy	55	4173	5
101112	11:43	5567	1.4.boog	56	2644	4
101112	11:43	5567	1.6.nilo	57	2280	8
101112	11:43	5567	2.3.blue	58	1691	9
101112	11:43	5567	1.5.jufe	59	2909	5
101112	11:43	5567	2.1.fur	60	2327	6
101112	11:43	5567	1.2.zape	61	2928	4
101112	11:43	5567	2.4.part	62	2585	5
101112	11:43	5567	2.6.dark	63	2520	5
101112	11:43	5567	1.4.foob	64	2385	5
101112	11:43	5567	1.2.likk	65	2225	4
101112	11:43	5567	2.2.slow	66	2306	3
101112	11:43	5567	2.4.free	67	2052	9
101112	11:43	5567	1.2.lale	68	2808	5
101112	11:43	5567	2.3.name	69	2334	8
101112	11:43	5567	2.2.cell	70	2903	7
101112	11:43	5567	2.1.but	71	3377	4
101112	11:43	5567	2.4.body	72	3488	7
101112	11:43	5567	2.1.rut	73	2636	4
101112	11:43	5567	1.4.noof	74	3152	5
101112	11:43	5567	2.5.unit	75	4720	6
101112	11:43	5567	1.6.vape	76	1802	5
101112	11:43	5567	1.2.zeed	77	1672	5
101112	11:43	5567	1.4.yoof	78	2355	4
101112	11:43	5567	2.1.rug	79	2379	6
101112	11:43	5567	2.2.cake	80	2937	8
101112	11:43	5567	2.3.yore	81	2778	5
101112	11:43	5567	2.3.knot	82	2674	2
101112	11:43	5567	2.4.foam	83	2381	6
101112	11:43	5567	2.6.slit	84	3163	5
101112	11:43	5567	1.6.dofe	85	2107	4
101112	11:43	5567	1.1.ghun	86	2997	3
101112	11:43	5567	1.6.celm	87	3179	3
101112	11:43	5567	1.2.lalo	88	3834	5
101112	11:43	5567	1.5.tutk	89	2166	4
101112	11:43	5567	2.5.non	90	1846	5
101112	11:43	5567	2.6.evil	91	2353	2
101112	11:43	5567	2.2.lids	92	2217	6
101112	11:43	5567	2.2.leap	93	3478	7
101112	11:43	5567	1.1.gub	94	4369	4
101112	11:43	5567	2.4.tidy	95	3225	5
101112	11:43	5567	2.5.arm	96	2735	6
101112	11:43	5567	2.3.hate	97	2231	1
101112	11:43	5567	1.4.teef	98	3028	3
101112	11:43	5567	2.5.boy	99	12217	9
101112	11:43	5567	1.5.zyr	100	20218	4
101112	11:43	5567	1.6.lim	101	3093	4
101112	11:43	5567	2.1.guy	102	4056	8
101112	11:43	5567	1.3.tove	103	5309	2
101112	11:43	5567	1.4.moof	104	25807	4
101112	11:43	5567	1.3.mobe	105	8692	3
101112	11:43	5567	1.3.jofe	106	6137	4
101112	11:43	5567	1.4.toof	107	2811	5
101112	11:43	5567	2.3.more	108	2225	7
101112	11:43	5567	1.6.joi	109	2062	4
101112	11:43	5567	2.6.milk	110	2153	6
101112	11:43	5567	2.3.star	111	2113	7
101112	11:43	5567	2.4.nude	112	2666	8
101112	11:43	5567	2.1.bug	113	3014	2
101112	11:43	5567	2.6.dog	114	2931	1
101112	11:43	5567	1.5.fuw	115	2156	2
101112	11:43	5567	1.1.vun	116	11619	4
101112	11:43	5567	2.6.cat	117	4940	1
101112	11:43	5567	2.5.bar	118	3053	9
101112	11:43	5567	2.4.flag	119	2674	6
101112	11:43	5567	1.1.nuv	120	2893	5