date	time	subject	trialcode	trialnum	latency	response
092412	11:15	34543	speed	1	3583	38
092412	11:15	34543	error	2	7265	97
092412	11:15	34543	whichhand	3	22462	right
092412	11:15	34543	2.4.free	1	2995	5
092412	11:15	34543	2.6.mask	2	2779	4
092412	11:15	34543	2.2.lids	3	2370	6
092412	11:15	34543	2.6.slit	4	2129	4
092412	11:15	34543	1.4.toof	5	1698	3
092412	11:15	34543	2.6.cat	6	1691	2
092412	11:15	34543	1.6.vape	7	2085	3
092412	11:15	34543	2.1.rut	8	2727	5
092412	11:15	34543	1.4.yeeb	9	1505	4
092412	11:15	34543	2.4.nude	10	1793	2
092412	11:15	34543	2.2.slow	11	1728	5
092412	11:15	34543	1.2.likk	12	2449	3
092412	11:15	34543	2.1.thus	13	1988	5
092412	11:15	34543	1.5.bih	14	1411	5
092412	11:15	34543	2.6.pain	15	1728	6
092412	11:15	34543	1.4.boog	16	1696	4
092412	11:15	34543	1.1.nuv	17	1617	4
092412	11:15	34543	2.1.fun	18	1157	7
092412	11:15	34543	2.3.yore	19	2686	7
092412	11:15	34543	1.6.zote	20	1417	7
092412	11:15	34543	2.6.scar	21	1006	7
092412	11:15	34543	2.2.dead	22	1699	8
092412	11:15	34543	1.6.vook	23	1660	4
092412	11:15	34543	1.1.vun	24	1776	3
092412	11:15	34543	1.3.tage	25	1087	5
092412	11:15	34543	1.4.moof	26	1089	6
092412	11:15	34543	2.3.star	27	1163	6
092412	11:15	34543	1.4.foob	28	913	4
092412	11:15	34543	2.1.buy	29	1127	5
092412	11:15	34543	1.6.lim	30	1194	6
092412	11:15	34543	1.1.bryg	31	1808	3
092412	11:15	34543	2.1.bug	32	1206	6
092412	11:15	34543	1.4.moob	33	1779	2
092412	11:15	34543	1.1.fryn	34	1314	5
092412	11:15	34543	1.3.anay	35	1602	5
092412	11:15	34543	1.4.noof	36	912	5
092412	11:15	34543	1.1.mur	37	1944	4
092412	11:15	34543	1.3.yave	38	1289	4
092412	11:15	34543	1.2.zeed	39	1715	3
092412	11:15	34543	1.6.soog	40	1451	3
092412	11:15	34543	1.5.syg	41	919	5
092412	11:15	34543	2.5.boy	42	1640	7
092412	11:15	34543	1.5.feg	43	1892	3
092412	11:15	34543	1.6.celm	44	1189	4
092412	11:15	34543	1.3.jafe	45	980	4
092412	11:15	34543	2.5.arm	46	1378	4
092412	11:15	34543	2.3.time	47	1576	7
092412	11:15	34543	1.1.ryng	48	1471	4
092412	11:15	34543	1.2.leel	49	1162	7
092412	11:15	34543	1.3.yane	50	1609	5
092412	11:15	34543	2.1.guy	51	2278	8
092412	11:15	34543	1.5.jufe	52	2537	6
092412	11:15	34543	2.5.bomb	53	1073	6
092412	11:15	34543	1.2.lale	54	1460	6
092412	11:15	34543	2.3.blue	55	839	6
092412	11:15	34543	2.5.art	56	675	6
092412	11:15	34543	2.4.lump	57	1310	6
092412	11:15	34543	1.6.nilo	58	815	6
092412	11:15	34543	1.3.yome	59	1260	4
092412	11:15	34543	2.1.but	60	2079	6
092412	11:15	34543	1.2.lalo	61	1922	5
092412	11:15	34543	1.1.ghun	62	1050	5
092412	11:15	34543	1.4.teef	63	5118	6
092412	11:15	34543	1.5.tutk	64	1024	6
092412	11:15	34543	1.2.zape	65	1053	6
092412	11:15	34543	2.2.lop	66	1592	4
092412	11:15	34543	1.2.dax	67	1702	7
092412	11:15	34543	2.6.evil	68	1256	6
092412	11:15	34543	1.1.vuy	69	1043	6
092412	11:15	34543	2.2.slid	70	1119	6
092412	11:15	34543	1.5.zyr	71	1656	4
092412	11:15	34543	1.2.zoke	72	1555	4
092412	11:15	34543	2.1.fur	73	1617	6
092412	11:15	34543	2.1.thy	74	1040	6
092412	11:15	34543	2.4.part	75	764	6
092412	11:15	34543	2.2.cake	76	730	6
092412	11:15	34543	2.4.flag	77	986	6
092412	11:15	34543	2.3.hate	78	936	6
092412	11:15	34543	2.4.dump	79	1216	6
092412	11:15	34543	1.2.zake	80	1245	6
092412	11:15	34543	2.5.unit	81	681	6
092412	11:15	34543	2.4.moon	82	739	6
092412	11:15	34543	1.5.fuw	83	4035	4
092412	11:15	34543	1.5.jaj	84	727	4
092412	11:15	34543	2.6.milk	85	2272	7
092412	11:15	34543	2.2.sex	86	1659	5
092412	11:15	34543	2.2.leap	87	991	5
092412	11:15	34543	2.3.obey	88	877	5
092412	11:15	34543	2.6.dog	89	1319	6
092412	11:15	34543	2.4.foam	90	504	6
092412	11:15	34543	1.1.guf	91	1929	6
092412	11:15	34543	1.5.vaf	92	706	6
092412	11:15	34543	2.4.tidy	93	923	6
092412	11:15	34543	2.3.name	94	524	6
092412	11:15	34543	1.1.gub	95	748	6
092412	11:15	34543	2.3.more	96	531	6
092412	11:15	34543	1.6.kabe	97	811	6
092412	11:15	34543	1.4.yoof	98	1632	4
092412	11:15	34543	1.3.vabe	99	1173	2
092412	11:15	34543	2.3.knot	100	1515	7
092412	11:15	34543	2.4.body	101	1692	5
092412	11:15	34543	1.3.jofe	102	710	5
092412	11:15	34543	2.3.hard	103	471	5
092412	11:15	34543	2.6.kin	104	514	5
092412	11:15	34543	1.4.voom	105	523	5
092412	11:15	34543	1.6.dofe	106	819	5
092412	11:15	34543	1.3.tove	107	639	5
092412	11:15	34543	1.6.joi	108	595	5
092412	11:15	34543	2.2.sick	109	760	5
092412	11:15	34543	2.6.dark	110	576	5
092412	11:15	34543	2.5.bus	111	501	5
092412	11:15	34543	2.5.fat	112	679	5
092412	11:15	34543	2.1.rug	113	536	5
092412	11:15	34543	1.3.mobe	114	513	5
092412	11:15	34543	2.2.cell	115	489	5
092412	11:15	34543	1.2.xad	116	651	5
092412	11:15	34543	1.5.yeb	117	639	5
092412	11:15	34543	2.5.grin	118	754	5
092412	11:15	34543	2.5.non	119	842	5
092412	11:15	34543	2.5.bar	120	750	5
092412	14:27	45647453768	speed	1	7438	42
092412	14:27	45647453768	error	2	5497	100
092412	14:27	45647453768	whichhand	3	6396	Right
092412	14:27	45647453768	2.5.bus	1	17662	6
092412	14:27	45647453768	1.3.anay	2	5207	4
092412	14:27	45647453768	2.2.slid	3	3893	7
092412	14:27	45647453768	1.6.zote	4	5416	4
092412	14:27	45647453768	1.5.vaf	5	3711	4
092412	14:27	45647453768	2.3.more	6	3129	7
092412	14:27	45647453768	2.6.evil	7	3049	2
092412	14:27	45647453768	1.6.celm	8	3060	5
092412	14:27	45647453768	1.1.ryng	9	5681	5
092412	14:27	45647453768	2.4.nude	10	3516	5
092412	14:27	45647453768	1.6.soog	11	3318	4
092412	14:27	45647453768	1.6.lim	12	3775	5
092412	14:27	45647453768	1.3.jafe	13	2799	5
092412	14:27	45647453768	1.4.noof	14	1572	5
092412	14:27	45647453768	1.2.zeed	15	2451	5
092412	14:27	45647453768	1.3.yave	16	4015	5
092412	14:27	45647453768	2.3.time	17	7540	6
092412	14:27	45647453768	2.1.rug	18	5111	6
092412	14:27	45647453768	2.2.slow	19	2985	1
092412	14:27	45647453768	2.2.cell	20	6759	7
092412	14:27	45647453768	1.4.toof	21	1993	5
092412	14:27	45647453768	2.1.fun	22	1879	9
092412	14:27	45647453768	1.1.guf	23	1737	5
092412	14:27	45647453768	2.5.arm	24	3257	9
092412	14:27	45647453768	2.4.moon	25	1717	9
092412	14:27	45647453768	1.2.likk	26	1590	5
092412	14:27	45647453768	2.1.rut	27	2332	2
092412	14:27	45647453768	2.5.bomb	28	2037	1
092412	14:27	45647453768	2.4.part	29	3017	4
092412	14:27	45647453768	1.4.moof	30	1702	5
092412	14:27	45647453768	1.6.joi	31	1576	5
092412	14:27	45647453768	1.2.zake	32	1335	5
092412	14:27	45647453768	1.5.feg	33	2159	5
092412	14:27	45647453768	2.4.tidy	34	2134	8
092412	14:27	45647453768	2.1.buy	35	1799	8
092412	14:27	45647453768	2.6.cat	36	2884	6
092412	14:27	45647453768	1.3.yome	37	1511	5
092412	14:27	45647453768	2.1.thy	38	1640	5
092412	14:27	45647453768	2.3.hard	39	2405	6
092412	14:27	45647453768	2.5.unit	40	3578	6
092412	14:27	45647453768	1.2.xad	41	1353	5
092412	14:27	45647453768	1.4.yeeb	42	1081	5
092412	14:27	45647453768	2.1.thus	43	4923	4
092412	14:27	45647453768	2.3.blue	44	3108	7
092412	14:27	45647453768	1.3.tage	45	1519	5
092412	14:27	45647453768	1.5.fuw	46	1423	5
092412	14:27	45647453768	2.2.lids	47	6836	8
092412	14:27	45647453768	2.4.flag	48	3826	7
092412	14:27	45647453768	1.2.zoke	49	1632	5
092412	14:27	45647453768	1.5.syg	50	1148	5
092412	14:27	45647453768	2.2.leap	51	2963	6
092412	14:27	45647453768	2.6.milk	52	2554	8
092412	14:27	45647453768	1.4.boog	53	1682	5
092412	14:27	45647453768	2.4.foam	54	1861	9
092412	14:27	45647453768	1.5.jaj	55	1304	5
092412	14:27	45647453768	1.6.dofe	56	1314	5
092412	14:27	45647453768	2.5.non	57	2778	2
092412	14:27	45647453768	2.5.art	58	1841	9
092412	14:27	45647453768	2.6.pain	59	2749	2
092412	14:27	45647453768	2.5.bar	60	5061	6
092412	14:27	45647453768	2.3.hate	61	2609	1
092412	14:27	45647453768	2.6.mask	62	2727	4
092412	14:27	45647453768	2.1.fur	63	2560	6
092412	14:27	45647453768	1.1.nuv	64	1496	5
092412	14:27	45647453768	1.2.leel	65	1393	5
092412	14:27	45647453768	1.2.dax	66	1071	5
092412	14:27	45647453768	2.3.obey	67	1922	6
092412	14:27	45647453768	2.5.boy	68	1755	8
092412	14:27	45647453768	1.4.voom	69	2723	6
092412	14:27	45647453768	1.2.lale	70	1555	5
092412	14:27	45647453768	1.6.kabe	71	1771	5
092412	14:27	45647453768	1.1.vuy	72	1250	5
092412	14:27	45647453768	1.1.fryn	73	1518	5
092412	14:27	45647453768	1.5.bih	74	982	5
092412	14:27	45647453768	1.2.lalo	75	3548	6
092412	14:27	45647453768	2.3.star	76	4413	9
092412	14:27	45647453768	1.3.yane	77	1603	5
092412	14:27	45647453768	1.1.ghun	78	1480	5
092412	14:27	45647453768	1.5.zyr	79	1250	5
092412	14:27	45647453768	2.2.cake	80	1750	8
092412	14:27	45647453768	2.3.name	81	2853	6
092412	14:27	45647453768	2.1.but	82	1873	4
092412	14:27	45647453768	2.6.scar	83	2444	3
092412	14:27	45647453768	1.3.vabe	84	1576	5
092412	14:27	45647453768	2.1.guy	85	2071	8
092412	14:27	45647453768	2.6.kin	86	1938	7
092412	14:27	45647453768	2.2.dead	87	2362	3
092412	14:27	45647453768	2.3.yore	88	1626	5
092412	14:27	45647453768	1.2.zape	89	1342	5
092412	14:27	45647453768	1.4.teef	90	1423	5
092412	14:27	45647453768	1.1.vun	91	1163	5
092412	14:27	45647453768	2.4.free	92	1682	9
092412	14:27	45647453768	2.4.body	93	1860	7
092412	14:27	45647453768	1.1.mur	94	1192	5
092412	14:27	45647453768	2.4.dump	95	2622	3
092412	14:27	45647453768	1.4.yoof	96	1547	5
092412	14:27	45647453768	1.4.moob	97	1122	5
092412	14:27	45647453768	1.5.tutk	98	987	5
092412	14:27	45647453768	1.4.foob	99	1001	5
092412	14:27	45647453768	2.5.grin	100	1838	7
092412	14:27	45647453768	1.6.vape	101	1155	5
092412	14:27	45647453768	1.3.tove	102	1026	5
092412	14:27	45647453768	2.3.knot	103	1527	6
092412	14:27	45647453768	1.1.bryg	104	1128	5
092412	14:27	45647453768	1.6.vook	105	1144	5
092412	14:27	45647453768	2.2.lop	106	1960	5
092412	14:27	45647453768	2.6.dark	107	5592	6
092412	14:27	45647453768	2.6.slit	108	3184	4
092412	14:27	45647453768	2.4.lump	109	1782	4
092412	14:27	45647453768	2.2.sex	110	2444	9
092412	14:27	45647453768	1.5.yeb	111	1305	5
092412	14:27	45647453768	1.6.nilo	112	1266	5
092412	14:27	45647453768	2.6.dog	113	1541	9
092412	14:27	45647453768	1.1.gub	114	1269	5
092412	14:27	45647453768	2.2.sick	115	2752	3
092412	14:27	45647453768	1.3.mobe	116	1368	5
092412	14:27	45647453768	1.5.jufe	117	919	5
092412	14:27	45647453768	2.1.bug	118	2623	4
092412	14:27	45647453768	1.3.jofe	119	1308	5
092412	14:27	45647453768	2.5.fat	120	2718	2
092412	14:55	15825259289	speed	1	5039	36
092412	14:55	15825259289	error	2	4074	100
092412	14:55	15825259289	whichhand	3	4766	right 
092412	14:55	15825259289	1.4.moof	1	12946	1
092412	14:55	15825259289	2.6.cat	2	5493	2
092412	14:55	15825259289	2.6.pain	3	7409	3
092412	14:55	15825259289	2.3.blue	4	1968	3
092412	14:55	15825259289	1.2.zeed	5	2807	1
092412	14:55	15825259289	2.4.part	6	8269	5
092412	14:55	15825259289	1.2.lalo	7	1970	1
092412	14:55	15825259289	1.4.toof	8	1633	1
092412	14:55	15825259289	1.1.mur	9	1181	1
092412	14:55	15825259289	2.1.rug	10	2131	5
092412	14:55	15825259289	1.3.tove	11	1803	1
092412	14:55	15825259289	1.3.tage	12	1881	1
092412	14:55	15825259289	2.2.slow	13	2403	4
092412	14:55	15825259289	2.5.bus	14	1337	4
092412	14:55	15825259289	1.4.voom	15	2241	2
092412	14:55	15825259289	1.6.zote	16	2262	1
092412	14:55	15825259289	2.2.leap	17	1929	3
092412	14:55	15825259289	2.3.more	18	1681	5
092412	14:55	15825259289	1.5.jufe	19	1595	1
092412	14:55	15825259289	2.5.arm	20	2081	4
092412	14:55	15825259289	1.1.guf	21	1091	1
092412	14:55	15825259289	1.1.vun	22	1173	1
092412	14:55	15825259289	1.5.syg	23	940	1
092412	14:55	15825259289	1.6.celm	24	1156	1
092412	14:55	15825259289	2.6.scar	25	2323	5
092412	14:55	15825259289	1.6.vape	26	2460	1
092412	14:55	15825259289	2.5.non	27	2128	1
092412	14:55	15825259289	1.6.lim	28	1161	1
092412	14:55	15825259289	2.4.free	29	1384	5
092412	14:55	15825259289	2.3.hate	30	2838	6
092412	14:55	15825259289	1.3.yane	31	1579	1
092412	14:55	15825259289	1.2.dax	32	2593	1
092412	14:55	15825259289	2.1.thus	33	1376	1
092412	14:55	15825259289	2.3.time	34	2206	7
092412	14:55	15825259289	1.6.joi	35	2148	1
092412	14:55	15825259289	1.6.soog	36	1132	1
092412	14:55	15825259289	2.5.fat	37	2572	5
092412	14:55	15825259289	1.5.bih	38	2235	1
092412	14:55	15825259289	1.4.yeeb	39	1015	1
092412	14:55	15825259289	2.2.lids	40	3148	4
092412	14:55	15825259289	2.2.cell	41	3516	7
092412	14:55	15825259289	1.5.vaf	42	1462	1
092412	14:55	15825259289	2.3.name	43	3681	9
092412	14:55	15825259289	1.2.zoke	44	1420	1
092412	14:55	15825259289	1.6.vook	45	1185	1
092412	14:55	15825259289	2.6.slit	46	1775	5
092412	14:55	15825259289	2.1.rut	47	1566	1
092412	14:55	15825259289	2.5.grin	48	2492	9
092412	14:55	15825259289	1.1.gub	49	1919	1
092412	14:55	15825259289	2.3.obey	50	2144	6
092412	14:55	15825259289	2.4.dump	51	1528	1
092412	14:55	15825259289	1.1.vuy	52	1856	1
092412	14:55	15825259289	1.2.xad	53	1132	1
092412	14:55	15825259289	1.5.feg	54	1052	1
092412	14:55	15825259289	2.3.knot	55	1608	4
092412	14:55	15825259289	1.3.jofe	56	1877	1
092412	14:55	15825259289	2.6.dark	57	1848	7
092412	14:55	15825259289	2.4.foam	58	1355	7
092412	14:55	15825259289	2.6.dog	59	1891	9
092412	14:55	15825259289	2.4.tidy	60	1925	5
092412	14:55	15825259289	2.1.guy	61	1734	9
092412	14:55	15825259289	2.1.fun	62	1406	9
092412	14:55	15825259289	1.3.yome	63	1228	1
092412	14:55	15825259289	2.1.thy	64	1576	1
092412	14:55	15825259289	1.2.zake	65	999	1
092412	14:55	15825259289	2.6.mask	66	1757	5
092412	14:55	15825259289	2.6.evil	67	2460	6
092412	14:55	15825259289	1.6.nilo	68	1248	1
092412	14:55	15825259289	1.1.fryn	69	1556	1
092412	14:55	15825259289	1.4.boog	70	1163	1
092412	14:55	15825259289	1.3.anay	71	1106	1
092412	14:55	15825259289	1.1.bryg	72	1139	1
092412	14:55	15825259289	2.2.dead	73	2019	5
092412	14:55	15825259289	1.4.moob	74	2248	1
092412	14:55	15825259289	2.4.nude	75	2012	7
092412	14:55	15825259289	1.4.foob	76	1721	1
092412	14:55	15825259289	2.4.flag	77	2610	6
092412	14:55	15825259289	1.4.yoof	78	1287	1
092412	14:55	15825259289	2.6.milk	79	1841	9
092412	14:55	15825259289	1.1.ghun	80	1382	1
092412	14:55	15825259289	2.1.buy	81	1692	9
092412	14:55	15825259289	2.3.star	82	2790	9
092412	14:55	15825259289	1.5.fuw	83	1717	1
092412	14:55	15825259289	1.1.nuv	84	1102	1
092412	14:55	15825259289	2.1.bug	85	1783	1
092412	14:55	15825259289	1.2.lale	86	1133	1
092412	14:55	15825259289	2.1.fur	87	2029	1
092412	14:55	15825259289	2.5.bar	88	2233	9
092412	14:55	15825259289	1.5.jaj	89	1350	1
092412	14:55	15825259289	1.5.yeb	90	1029	1
092412	14:55	15825259289	2.6.kin	91	2474	4
092412	14:55	15825259289	1.2.zape	92	1340	1
092412	14:55	15825259289	1.3.vabe	93	940	1
092412	14:55	15825259289	1.3.yave	94	925	1
092412	14:55	15825259289	2.3.hard	95	2093	9
092412	14:55	15825259289	2.5.bomb	96	2992	5
092412	14:55	15825259289	1.3.mobe	97	1902	1
092412	14:55	15825259289	1.2.leel	98	1024	1
092412	14:55	15825259289	1.6.dofe	99	1236	1
092412	14:55	15825259289	1.4.teef	100	1129	1
092412	14:55	15825259289	2.1.but	101	2257	5
092412	14:55	15825259289	1.3.jafe	102	1652	1
092412	14:55	15825259289	1.2.likk	103	1096	1
092412	14:55	15825259289	2.5.boy	104	1897	9
092412	14:55	15825259289	2.2.cake	105	1643	7
092412	14:55	15825259289	2.2.slid	106	2799	5
092412	14:55	15825259289	1.1.ryng	107	2317	1
092412	14:55	15825259289	1.6.kabe	108	1582	1
092412	14:55	15825259289	1.5.tutk	109	1308	1
092412	14:55	15825259289	1.5.zyr	110	1230	1
092412	14:55	15825259289	2.2.sex	111	2418	9
092412	14:55	15825259289	2.5.unit	112	2399	6
092412	14:55	15825259289	2.5.art	113	2189	9
092412	14:55	15825259289	2.4.body	114	1371	9
092412	14:55	15825259289	2.2.sick	115	2066	6
092412	14:55	15825259289	2.2.lop	116	1748	1
092412	14:55	15825259289	2.3.yore	117	1004	1
092412	14:55	15825259289	2.4.moon	118	2242	9
092412	14:55	15825259289	2.4.lump	119	4814	2
092412	14:55	15825259289	1.4.noof	120	1132	1
100212	09:53	25826	speed	1	5953	46
100212	09:53	25826	error	2	5043	93
100212	09:53	25826	whichhand	3	9485	right
100212	09:53	25826	2.4.foam	1	12065	5
100212	09:53	25826	2.3.hard	2	2375	5
100212	09:53	25826	1.3.vabe	3	5404	6
100212	09:53	25826	2.6.dark	4	5048	4
100212	09:53	25826	1.1.guf	5	3146	3
100212	09:53	25826	2.2.sick	6	6986	1
100212	09:53	25826	1.4.moof	7	3138	4
100212	09:53	25826	1.6.soog	8	1115	3
100212	09:53	25826	1.1.vuy	9	2082	6
100212	09:53	25826	1.1.vun	10	2597	7
100212	09:53	25826	2.5.boy	11	2009	5
100212	09:53	25826	2.4.body	12	2774	5
100212	09:53	25826	2.1.fur	13	2968	6
100212	09:53	25826	2.2.slid	14	1921	6
100212	09:53	25826	1.1.nuv	15	1714	4
100212	09:53	25826	2.2.cake	16	2492	8
100212	09:53	25826	2.6.milk	17	1486	8
100212	09:53	25826	1.6.dofe	18	3113	4
100212	09:53	25826	1.2.likk	19	3193	5
100212	09:53	25826	1.2.xad	20	5326	3
100212	09:53	25826	1.6.vape	21	3009	9
100212	09:53	25826	2.3.name	22	3119	5
100212	09:53	25826	1.6.lim	23	5273	4
100212	09:53	25826	1.2.zake	24	3108	7
100212	09:53	25826	1.3.yave	25	2703	5
100212	09:53	25826	2.5.fat	26	2912	3
100212	09:53	25826	1.6.kabe	27	3065	4
100212	09:53	25826	2.3.star	28	1549	8
100212	09:53	25826	1.4.toof	29	4076	6
100212	09:53	25826	2.6.mask	30	1816	6
100212	09:53	25826	2.2.slow	31	3381	4
100212	09:53	25826	2.3.blue	32	3556	5
100212	09:53	25826	2.1.thus	33	1611	5
100212	09:53	25826	2.4.moon	34	2241	7
100212	09:53	25826	1.4.teef	35	2013	6
100212	09:53	25826	2.5.art	36	1562	7
100212	09:53	25826	1.5.tutk	37	1496	5
100212	09:53	25826	1.4.noof	38	3818	3
100212	09:53	25826	2.1.fun	39	1374	7
100212	09:53	25826	1.1.fryn	40	3062	6
100212	09:53	25826	1.2.lalo	41	2641	6
100212	09:53	25826	1.3.jafe	42	4045	6
100212	09:53	25826	2.3.more	43	2130	8
100212	09:53	25826	1.6.joi	44	1858	4
100212	09:53	25826	2.4.nude	45	2486	7
100212	09:53	25826	1.3.jofe	46	4536	4
100212	09:53	25826	1.2.lale	47	2330	3
100212	09:53	25826	2.5.bomb	48	3578	5
100212	09:53	25826	1.2.zoke	49	5977	7
100212	09:53	25826	2.6.scar	50	3361	4
100212	09:53	25826	1.6.celm	51	1609	3
100212	09:53	25826	1.1.gub	52	815	2
100212	09:53	25826	2.1.buy	53	1683	8
100212	09:53	25826	1.3.tove	54	3053	4
100212	09:53	25826	2.4.part	55	2849	3
100212	09:53	25826	2.2.leap	56	2029	7
100212	09:53	25826	1.5.feg	57	2185	3
100212	09:53	25826	1.5.syg	58	1056	3
100212	09:53	25826	2.5.bus	59	1427	4
100212	09:53	25826	1.4.foob	60	1144	5
100212	09:53	25826	2.2.lop	61	912	5
100212	09:53	25826	1.4.moob	62	937	4
100212	09:53	25826	1.1.ryng	63	684	3
100212	09:53	25826	1.2.dax	64	2283	2
100212	09:53	25826	2.1.rut	65	1189	3
100212	09:53	25826	2.1.bug	66	2267	4
100212	09:53	25826	1.2.zape	67	2071	7
100212	09:53	25826	2.1.but	68	3010	5
100212	09:53	25826	2.6.pain	69	4367	1
100212	09:53	25826	2.2.lids	70	3127	5
100212	09:53	25826	1.4.yeeb	71	1697	4
100212	09:53	25826	1.2.leel	72	2626	7
100212	09:53	25826	1.5.jufe	73	2007	6
100212	09:53	25826	1.5.zyr	74	2965	5
100212	09:53	25826	1.1.ghun	75	2996	4
100212	09:53	25826	2.6.kin	76	2634	6
100212	09:53	25826	2.1.guy	77	1783	5
100212	09:53	25826	1.6.zote	78	4637	4
100212	09:53	25826	2.1.thy	79	2210	6
100212	09:53	25826	1.5.bih	80	2040	5
100212	09:53	25826	2.3.yore	81	2196	4
100212	09:53	25826	1.5.fuw	82	1554	4
100212	09:53	25826	1.4.voom	83	4145	4
100212	09:53	25826	2.6.slit	84	2674	6
100212	09:53	25826	2.3.obey	85	2365	2
100212	09:53	25826	2.5.arm	86	5372	6
100212	09:53	25826	2.6.evil	87	3956	3
100212	09:53	25826	1.2.zeed	88	1852	8
100212	09:53	25826	2.4.flag	89	4392	7
100212	09:53	25826	1.6.vook	90	5071	4
100212	09:53	25826	1.5.vaf	91	6330	5
100212	09:53	25826	2.2.dead	92	2028	2
100212	09:53	25826	1.1.bryg	93	2974	4
100212	09:53	25826	2.2.cell	94	2327	6
100212	09:53	25826	1.3.tage	95	1744	6
100212	09:53	25826	2.2.sex	96	2137	8
100212	09:53	25826	2.4.lump	97	6632	4
100212	09:53	25826	2.3.knot	98	2951	1
100212	09:53	25826	1.5.yeb	99	1783	3
100212	09:53	25826	1.4.yoof	100	1741	4
100212	09:53	25826	2.5.bar	101	2469	7
100212	09:53	25826	1.1.mur	102	2176	4
100212	09:53	25826	2.4.tidy	103	5728	9
100212	09:53	25826	2.5.grin	104	3385	7
100212	09:53	25826	2.4.dump	105	2776	3
100212	09:53	25826	1.3.yane	106	1983	4
100212	09:53	25826	2.6.cat	107	2358	5
100212	09:53	25826	1.6.nilo	108	2325	4
100212	09:53	25826	2.5.unit	109	2069	5
100212	09:53	25826	1.5.jaj	110	2361	3
100212	09:53	25826	2.6.dog	111	2025	9
100212	09:53	25826	2.5.non	112	4438	4
100212	09:53	25826	2.3.time	113	7155	1
100212	09:53	25826	1.3.anay	114	3956	7
100212	09:53	25826	2.4.free	115	2133	9
100212	09:53	25826	1.3.yome	116	1349	3
100212	09:53	25826	1.3.mobe	117	2004	2
100212	09:53	25826	2.1.rug	118	4523	7
100212	09:53	25826	1.4.boog	119	3212	4
100212	09:53	25826	2.3.hate	120	2226	3
100412	13:03	654165	speed	1	7822	44
100412	13:03	654165	error	2	9724	88%
100412	13:03	654165	whichhand	3	8416	right
100412	13:03	654165	2.5.unit	1	12378	5
100412	13:03	654165	2.5.arm	2	6340	5
100412	13:03	654165	1.3.yome	3	2789	2
100412	13:03	654165	2.6.scar	4	2276	1
100412	13:03	654165	1.4.moof	5	3863	2
100412	13:03	654165	2.2.sick	6	1363	1
100412	13:03	654165	2.1.but	7	3225	2
100412	13:03	654165	1.4.boog	8	3999	1
100412	13:03	654165	1.2.lalo	9	3789	5
100412	13:03	654165	2.5.art	10	2524	7
100412	13:03	654165	1.6.lim	11	3173	5
100412	13:03	654165	1.5.jaj	12	3820	1
100412	13:03	654165	2.4.foam	13	2858	7
100412	13:03	654165	1.2.zape	14	3550	6
100412	13:03	654165	2.5.bomb	15	5638	1
100412	13:03	654165	1.4.foob	16	3139	1
100412	13:03	654165	2.2.sex	17	2060	9
100412	13:03	654165	1.3.jofe	18	2936	1
100412	13:03	654165	1.6.kabe	19	3880	1
100412	13:03	654165	1.1.vun	20	2227	2
100412	13:03	654165	1.6.joi	21	2240	5
100412	13:03	654165	2.4.part	22	4869	5
100412	13:03	654165	1.6.zote	23	4433	1
100412	13:03	654165	1.1.ryng	24	2277	2
100412	13:03	654165	2.1.bug	25	4953	3
100412	13:03	654165	1.5.feg	26	2921	3
100412	13:03	654165	2.6.dark	27	3131	7
100412	13:03	654165	1.1.ghun	28	2635	2
100412	13:03	654165	2.3.hard	29	3208	6
100412	13:03	654165	1.6.nilo	30	2462	2
100412	13:03	654165	2.3.name	31	2945	5
100412	13:03	654165	1.1.vuy	32	2736	1
100412	13:03	654165	2.3.yore	33	4065	6
100412	13:03	654165	1.1.mur	34	2501	1
100412	13:03	654165	2.4.lump	35	4367	1
100412	13:03	654165	1.5.fuw	36	2478	1
100412	13:03	654165	1.6.celm	37	5609	2
100412	13:03	654165	1.1.nuv	38	4032	2
100412	13:03	654165	1.2.xad	39	2749	6
100412	13:03	654165	2.6.dog	40	2684	8
100412	13:03	654165	1.3.tove	41	4439	5
100412	13:03	654165	1.5.syg	42	2900	3
100412	13:03	654165	1.1.gub	43	5174	5
100412	13:03	654165	1.5.zyr	44	5566	6
100412	13:03	654165	1.6.dofe	45	3446	4
100412	13:03	654165	1.2.lale	46	5818	5
100412	13:03	654165	1.4.noof	47	2696	2
100412	13:03	654165	2.1.guy	48	2594	7
100412	13:03	654165	2.1.thus	49	2104	6
100412	13:03	654165	2.6.kin	50	3530	8
100412	13:03	654165	1.2.likk	51	2411	1
100412	13:03	654165	2.2.slow	52	2665	2
100412	13:03	654165	1.4.teef	53	3324	1
100412	13:03	654165	2.3.more	54	4621	7
100412	13:03	654165	1.1.guf	55	2227	2
100412	13:03	654165	1.5.tutk	56	1753	1
100412	13:03	654165	1.5.vaf	57	2456	3
100412	13:03	654165	1.4.toof	58	2524	2
100412	13:03	654165	1.5.jufe	59	5269	4
100412	13:03	654165	2.3.hate	60	2145	1
100412	13:03	654165	2.5.grin	61	1865	9
100412	13:03	654165	1.4.voom	62	2483	8
100412	13:03	654165	1.3.yane	63	2966	5
100412	13:03	654165	2.5.bar	64	2805	7
100412	13:03	654165	2.4.moon	65	1843	9
100412	13:03	654165	2.5.non	66	6679	2
100412	13:03	654165	1.4.yeeb	67	1659	1
100412	13:03	654165	1.6.vook	68	6215	2
100412	13:03	654165	2.5.boy	69	3909	6
100412	13:03	654165	1.3.tage	70	2375	1
100412	13:03	654165	2.4.tidy	71	2470	8
100412	13:03	654165	2.6.cat	72	1681	1
100412	13:03	654165	1.2.leel	73	2308	1
100412	13:03	654165	2.4.flag	74	2245	8
100412	13:03	654165	2.2.slid	75	3625	6
100412	13:03	654165	2.2.lids	76	2519	5
100412	13:03	654165	2.3.time	77	6112	7
100412	13:03	654165	1.3.jafe	78	3594	3
100412	13:03	654165	2.1.fun	79	2017	9
100412	13:03	654165	1.6.soog	80	6630	5
100412	13:03	654165	2.4.free	81	2580	8
100412	13:03	654165	1.3.mobe	82	3394	2
100412	13:03	654165	2.5.bus	83	2057	1
100412	13:03	654165	2.6.milk	84	3141	4
100412	13:03	654165	1.1.bryg	85	2709	1
100412	13:03	654165	2.1.rug	86	2495	5
100412	13:03	654165	2.6.evil	87	1833	1
100412	13:03	654165	1.4.yoof	88	2413	1
100412	13:03	654165	1.5.yeb	89	2834	2
100412	13:03	654165	2.3.obey	90	3927	5
100412	13:03	654165	2.2.dead	91	2936	2
100412	13:03	654165	2.3.knot	92	4105	4
100412	13:03	654165	2.6.mask	93	2947	4
100412	13:03	654165	2.2.leap	94	5963	5
100412	13:03	654165	2.3.star	95	1851	9
100412	13:03	654165	2.2.lop	96	3479	2
100412	13:03	654165	2.4.body	97	2097	8
100412	13:03	654165	2.4.dump	98	2611	1
100412	13:03	654165	1.5.bih	99	2777	1
100412	13:03	654165	1.2.zoke	100	2680	1
100412	13:03	654165	1.2.zake	101	3507	2
100412	13:03	654165	1.3.vabe	102	3540	1
100412	13:03	654165	2.2.cell	103	4517	2
100412	13:03	654165	2.1.thy	104	3239	3
100412	13:03	654165	2.2.cake	105	2020	8
100412	13:03	654165	2.1.rut	106	2368	2
100412	13:03	654165	2.4.nude	107	2400	8
100412	13:03	654165	2.6.slit	108	6310	3
100412	13:03	654165	1.2.zeed	109	3752	6
100412	13:03	654165	2.3.blue	110	2249	7
100412	13:03	654165	2.1.buy	111	3661	7
100412	13:03	654165	2.5.fat	112	2713	5
100412	13:03	654165	2.6.pain	113	3258	6
100412	13:03	654165	1.2.dax	114	4590	3
100412	13:03	654165	1.6.vape	115	2085	3
100412	13:03	654165	1.1.fryn	116	2415	1
100412	13:03	654165	1.4.moob	117	3868	2
100412	13:03	654165	2.1.fur	118	2936	7
100412	13:03	654165	1.3.anay	119	4617	4
100412	13:03	654165	1.3.yave	120	3687	3
100412	13:17	548741	speed	1	3632	30
100412	13:17	548741	error	2	5184	76%
100412	13:17	548741	whichhand	3	7256	Right
100412	13:17	548741	1.2.dax	1	9874	2
100412	13:17	548741	2.3.more	2	12039	2
100412	13:17	548741	2.1.buy	3	8302	5
100412	13:17	548741	1.1.guf	4	2818	1
100412	13:17	548741	1.6.vook	5	2456	2
100412	13:17	548741	2.3.blue	6	6043	6
100412	13:17	548741	2.1.guy	7	7561	6
100412	13:17	548741	2.5.non	8	2634	5
100412	13:17	548741	2.3.name	9	6910	4
100412	13:17	548741	1.4.yoof	10	11609	1
100412	13:17	548741	2.6.dog	11	2433	7
100412	13:17	548741	2.5.arm	12	2333	5
100412	13:17	548741	1.5.syg	13	2798	3
100412	13:17	548741	1.5.bih	14	2763	3
100412	13:17	548741	1.5.feg	15	4227	4
100412	13:17	548741	2.1.rut	16	4240	8
100412	13:17	548741	1.3.vabe	17	5853	5
100412	13:17	548741	2.6.milk	18	2938	6
100412	13:17	548741	1.5.yeb	19	10363	5
100412	13:17	548741	1.4.toof	20	5308	6
100412	13:17	548741	1.1.vuy	21	1991	2
100412	13:17	548741	2.5.bomb	22	3229	6
100412	13:17	548741	2.2.sick	23	6890	3
100412	13:17	548741	1.2.leel	24	16477	4
100412	13:17	548741	1.6.soog	25	2501	2
100412	13:17	548741	2.3.star	26	4143	7
100412	13:17	548741	2.2.leap	27	5120	6
100412	13:17	548741	1.3.yave	28	2378	3
100412	13:17	548741	2.6.slit	29	2456	2
100412	13:17	548741	2.4.nude	30	2196	2
100412	13:17	548741	2.4.lump	31	3746	1
100412	13:17	548741	2.6.pain	32	2619	1
100412	13:17	548741	2.5.grin	33	8271	7
100412	13:17	548741	1.6.zote	34	8620	5
100412	13:17	548741	2.5.bar	35	21347	5
100412	13:17	548741	2.1.fun	36	2569	8
100412	13:17	548741	1.5.tutk	37	3288	4
100412	13:17	548741	2.2.slid	38	2507	4
100412	13:17	548741	2.1.thy	39	3293	5
100412	13:17	548741	2.6.kin	40	4224	6
100412	13:17	548741	1.6.joi	41	2893	3
100412	13:17	548741	1.3.anay	42	2264	2
100412	13:17	548741	2.2.dead	43	9987	2
100412	13:17	548741	2.4.body	44	2388	5
100412	13:17	548741	2.2.lop	45	9058	3
100412	13:17	548741	2.3.knot	46	2576	5
100412	13:17	548741	1.1.bryg	47	2191	4
100412	13:17	548741	2.1.rug	48	2646	3
100412	13:17	548741	1.2.zeed	49	2410	2
100412	13:17	548741	1.2.xad	50	2454	1
100412	13:17	548741	2.1.bug	51	9787	3
100412	13:17	548741	1.5.jufe	52	3500	8
100412	13:17	548741	1.1.mur	53	3854	2
100412	13:17	548741	2.4.part	54	2562	5
100412	13:17	548741	1.1.fryn	55	8009	3
100412	13:17	548741	1.6.celm	56	2705	2
100412	13:17	548741	1.5.vaf	57	12251	4
100412	13:17	548741	1.6.vape	58	6282	3
100412	13:17	548741	1.4.voom	59	5237	5
100412	13:17	548741	2.2.slow	60	3451	4
100412	13:17	548741	1.2.likk	61	3007	1
100412	13:17	548741	1.3.yome	62	3061	2
100412	13:17	548741	1.4.yeeb	63	2025	1
100412	13:17	548741	2.6.dark	64	3796	6
100412	13:17	548741	2.5.fat	65	2836	1
100412	13:17	548741	1.2.zoke	66	1985	2
100412	13:17	548741	2.4.flag	67	3183	6
100412	13:17	548741	1.3.tove	68	5102	3
100412	13:17	548741	2.4.foam	69	5536	6
100412	13:17	548741	1.6.kabe	70	2970	3
100412	13:17	548741	2.5.unit	71	3841	6
100412	13:17	548741	2.3.obey	72	5782	1
100412	13:17	548741	1.5.jaj	73	1869	2
100412	13:17	548741	1.4.boog	74	2144	1
100412	13:17	548741	2.3.hate	75	4249	1
100412	13:17	548741	1.3.jofe	76	3029	4
100412	13:17	548741	1.1.gub	77	1969	3
100412	13:17	548741	2.5.bus	78	2888	5
100412	13:17	548741	2.3.yore	79	1603	3
100412	13:17	548741	2.4.tidy	80	5233	6
100412	13:17	548741	2.5.art	81	2702	8
100412	13:17	548741	1.4.foob	82	3080	3
100412	13:17	548741	1.2.zape	83	3146	2
100412	13:17	548741	1.6.dofe	84	7402	3
100412	13:17	548741	2.4.dump	85	2058	1
100412	13:17	548741	1.5.fuw	86	1757	2
100412	13:17	548741	2.2.sex	87	2877	3
100412	13:17	548741	2.4.moon	88	1904	8
100412	13:17	548741	1.2.lale	89	3930	4
100412	13:17	548741	1.5.zyr	90	5179	3
100412	13:17	548741	1.3.jafe	91	2410	1
100412	13:17	548741	1.2.lalo	92	2416	2
100412	13:17	548741	1.1.nuv	93	3517	5
100412	13:17	548741	1.1.ryng	94	1967	3
100412	13:17	548741	1.4.teef	95	3773	3
100412	13:17	548741	1.3.yane	96	2429	4
100412	13:17	548741	1.3.tage	97	11401	4
100412	13:17	548741	2.4.free	98	2498	8
100412	13:17	548741	2.1.thus	99	3892	7
100412	13:17	548741	2.6.evil	100	2687	2
100412	13:17	548741	1.6.lim	101	2017	3
100412	13:17	548741	2.1.but	102	4462	5
100412	13:17	548741	2.1.fur	103	2138	2
100412	13:17	548741	1.4.moob	104	4122	2
100412	13:17	548741	2.2.lids	105	5084	5
100412	13:17	548741	2.6.scar	106	4311	3
100412	13:17	548741	1.4.noof	107	9744	3
100412	13:17	548741	2.2.cell	108	4219	5
100412	13:17	548741	1.1.ghun	109	7633	4
100412	13:17	548741	1.3.mobe	110	3887	3
100412	13:17	548741	2.3.time	111	2426	7
100412	13:17	548741	2.3.hard	112	2887	5
100412	13:17	548741	2.2.cake	113	4217	8
100412	13:17	548741	2.6.cat	114	2815	8
100412	13:17	548741	2.5.boy	115	2284	6
100412	13:17	548741	2.6.mask	116	10791	4
100412	13:17	548741	1.1.vun	117	5920	4
100412	13:17	548741	1.6.nilo	118	8338	5
100412	13:17	548741	1.4.moof	119	3997	3
100412	13:17	548741	1.2.zake	120	2459	2
100412	14:12	54561	speed	1	2790	34
100412	14:12	54561	error	2	4682	64%
100412	14:12	54561	whichhand	3	9670	right 
100412	14:12	54561	2.5.unit	1	7871	3
100412	14:12	54561	1.5.jufe	2	5021	3
100412	14:12	54561	2.6.kin	3	5466	6
100412	14:12	54561	2.6.pain	4	3046	1
100412	14:12	54561	1.2.zape	5	3834	4
100412	14:12	54561	2.4.part	6	2343	6
100412	14:12	54561	1.1.ghun	7	2168	5
100412	14:12	54561	1.1.gub	8	2351	5
100412	14:12	54561	1.6.soog	9	2646	1
100412	14:12	54561	1.5.bih	10	1403	1
100412	14:12	54561	1.2.zake	11	4152	3
100412	14:12	54561	2.4.free	12	1920	9
100412	14:12	54561	1.6.zote	13	2425	3
100412	14:12	54561	1.1.vun	14	1542	3
100412	14:12	54561	1.2.leel	15	2679	5
100412	14:12	54561	2.3.blue	16	4073	8
100412	14:12	54561	1.2.zoke	17	2629	5
100412	14:12	54561	1.2.xad	18	2993	1
100412	14:12	54561	2.2.cake	19	1999	9
100412	14:12	54561	2.1.thy	20	5821	6
100412	14:12	54561	1.1.mur	21	2820	2
100412	14:12	54561	1.6.dofe	22	1985	1
100412	14:12	54561	2.4.body	23	2967	9
100412	14:12	54561	1.3.yane	24	3630	3
100412	14:12	54561	2.1.but	25	6507	1
100412	14:12	54561	1.2.lale	26	3262	5
100412	14:12	54561	2.6.evil	27	2362	1
100412	14:12	54561	2.5.arm	28	2841	9
100412	14:12	54561	1.3.vabe	29	1989	6
100412	14:12	54561	2.4.dump	30	2900	1
100412	14:12	54561	1.1.bryg	31	2173	1
100412	14:12	54561	1.3.yave	32	4404	6
100412	14:12	54561	1.5.yeb	33	2075	5
100412	14:12	54561	1.3.anay	34	5998	5
100412	14:12	54561	2.4.moon	35	1733	9
100412	14:12	54561	2.1.buy	36	1709	9
100412	14:12	54561	1.5.fuw	37	2087	6
100412	14:12	54561	2.3.hard	38	3089	1
100412	14:12	54561	1.4.boog	39	3963	6
100412	14:12	54561	1.4.moof	40	3675	4
100412	14:12	54561	1.3.tove	41	1847	5
100412	14:12	54561	2.3.more	42	4730	7
100412	14:12	54561	2.2.cell	43	2483	9
100412	14:12	54561	1.5.jaj	44	3838	3
100412	14:12	54561	1.1.nuv	45	2555	3
100412	14:12	54561	1.5.vaf	46	2114	3
100412	14:12	54561	2.3.knot	47	3260	3
100412	14:12	54561	2.6.dark	48	3512	6
100412	14:12	54561	1.4.toof	49	1153	5
100412	14:12	54561	2.3.star	50	1809	8
100412	14:12	54561	2.2.slid	51	1798	6
100412	14:12	54561	2.1.fun	52	2028	9
100412	14:12	54561	1.3.tage	53	4129	3
100412	14:12	54561	1.5.feg	54	2754	1
100412	14:12	54561	2.4.flag	55	2073	9
100412	14:12	54561	1.6.vook	56	2029	6
100412	14:12	54561	1.4.moob	57	3249	6
100412	14:12	54561	2.5.bus	58	2861	6
100412	14:12	54561	1.6.kabe	59	1609	4
100412	14:12	54561	2.2.sex	60	4110	8
100412	14:12	54561	1.1.ryng	61	1961	4
100412	14:12	54561	2.1.guy	62	2256	8
100412	14:12	54561	2.4.tidy	63	2620	9
100412	14:12	54561	2.6.scar	64	2577	1
100412	14:12	54561	1.5.tutk	65	2656	2
100412	14:12	54561	2.3.yore	66	2932	5
100412	14:12	54561	1.3.yome	67	997	5
100412	14:12	54561	1.4.noof	68	1410	4
100412	14:12	54561	2.4.foam	69	1840	7
100412	14:12	54561	2.3.time	70	2452	7
100412	14:12	54561	1.6.lim	71	3463	6
100412	14:12	54561	2.2.slow	72	3811	2
100412	14:12	54561	2.5.bar	73	1945	8
100412	14:12	54561	2.6.mask	74	3945	8
100412	14:12	54561	2.3.hate	75	1481	1
100412	14:12	54561	1.5.zyr	76	1371	3
100412	14:12	54561	1.1.vuy	77	2362	3
100412	14:12	54561	1.6.joi	78	1937	6
100412	14:12	54561	2.2.lids	79	4593	6
100412	14:12	54561	1.4.yoof	80	2289	3
100412	14:12	54561	2.4.lump	81	2347	1
100412	14:12	54561	1.3.jofe	82	1667	3
100412	14:12	54561	1.3.mobe	83	1694	6
100412	14:12	54561	1.6.celm	84	2240	6
100412	14:12	54561	2.6.slit	85	5412	6
100412	14:12	54561	2.1.rug	86	2090	6
100412	14:12	54561	2.2.sick	87	1604	1
100412	14:12	54561	2.1.rut	88	2754	1
100412	14:12	54561	2.5.art	89	1610	9
100412	14:12	54561	1.3.jafe	90	2712	5
100412	14:12	54561	1.4.teef	91	2545	5
100412	14:12	54561	2.2.dead	92	1497	1
100412	14:12	54561	1.1.guf	93	1098	5
100412	14:12	54561	2.5.bomb	94	1772	1
100412	14:12	54561	1.4.voom	95	3674	6
100412	14:12	54561	2.5.grin	96	2094	8
100412	14:12	54561	2.3.obey	97	3056	6
100412	14:12	54561	1.6.vape	98	1380	5
100412	14:12	54561	1.2.zeed	99	4458	5
100412	14:12	54561	2.1.thus	100	2279	6
100412	14:12	54561	2.1.fur	101	1801	6
100412	14:12	54561	2.3.name	102	1735	9
100412	14:12	54561	2.5.non	103	3103	4
100412	14:12	54561	2.4.nude	104	4457	6
100412	14:12	54561	2.2.lop	105	3733	6
100412	14:12	54561	2.2.leap	106	3094	8
100412	14:12	54561	2.1.bug	107	2065	1
100412	14:12	54561	1.2.dax	108	2004	4
100412	14:12	54561	1.2.likk	109	1929	4
100412	14:12	54561	1.1.fryn	110	1353	5
100412	14:12	54561	2.6.dog	111	2065	7
100412	14:12	54561	2.6.cat	112	1684	9
100412	14:12	54561	1.2.lalo	113	1294	5
100412	14:12	54561	1.4.foob	114	2352	5
100412	14:12	54561	2.5.fat	115	2552	1
100412	14:12	54561	1.5.syg	116	1376	4
100412	14:12	54561	2.5.boy	117	1591	7
100412	14:12	54561	1.4.yeeb	118	1045	5
100412	14:12	54561	1.6.nilo	119	1129	5
100412	14:12	54561	2.6.milk	120	2225	9
100412	14:59	654894	speed	1	2597	51
100412	14:59	654894	error	2	3576	92%
100412	14:59	654894	whichhand	3	42640	right
100412	14:59	654894	2.4.free	1	3598	9
100412	14:59	654894	1.6.vape	2	3820	4
100412	14:59	654894	1.3.tage	3	8161	3
100412	14:59	654894	2.4.dump	4	2251	1
100412	14:59	654894	1.5.syg	5	2262	5
100412	14:59	654894	2.6.milk	6	1881	9
100412	14:59	654894	1.3.mobe	7	2451	2
100412	14:59	654894	1.2.lalo	8	2183	4
100412	14:59	654894	2.6.dark	9	1486	1
100412	14:59	654894	1.5.feg	10	1632	4
100412	14:59	654894	2.6.scar	11	1588	1
100412	14:59	654894	2.6.kin	12	2954	7
100412	14:59	654894	2.5.bus	13	1946	8
100412	14:59	654894	2.1.bug	14	1546	1
100412	14:59	654894	1.2.leel	15	1849	5
100412	14:59	654894	2.1.fur	16	4501	8
100412	14:59	654894	2.3.knot	17	2063	2
100412	14:59	654894	1.4.noof	18	1442	3
100412	14:59	654894	1.2.zoke	19	2422	3
100412	14:59	654894	1.2.dax	20	3788	2
100412	14:59	654894	2.3.yore	21	13610	4
100412	14:59	654894	1.2.zape	22	5203	5
100412	14:59	654894	2.2.cake	23	4090	9
100412	14:59	654894	2.1.thus	24	1525	6
100412	14:59	654894	2.6.cat	25	2189	3
100412	14:59	654894	1.2.xad	26	2332	1
100412	14:59	654894	1.6.nilo	27	1460	2
100412	14:59	654894	1.2.zake	28	1872	3
100412	14:59	654894	1.4.moof	29	1171	3
100412	14:59	654894	2.3.star	30	1449	9
100412	14:59	654894	2.2.slid	31	1717	5
100412	14:59	654894	1.4.toof	32	5566	6
100412	14:59	654894	2.4.nude	33	2982	1
100412	14:59	654894	1.3.yome	34	1605	3
100412	14:59	654894	1.4.teef	35	3434	5
100412	14:59	654894	2.2.cell	36	2831	7
100412	14:59	654894	2.1.rug	37	1691	7
100412	14:59	654894	1.5.tutk	38	8389	4
100412	14:59	654894	1.1.fryn	39	11086	5
100412	14:59	654894	2.2.sex	40	4603	8
100412	14:59	654894	2.2.lids	41	2450	7
100412	14:59	654894	2.2.sick	42	1597	1
100412	14:59	654894	2.4.lump	43	1931	1
100412	14:59	654894	2.5.fat	44	1243	1
100412	14:59	654894	1.6.vook	45	4575	4
100412	14:59	654894	1.5.jufe	46	9215	6
100412	14:59	654894	2.6.slit	47	2070	1
100412	14:59	654894	2.5.art	48	1865	9
100412	14:59	654894	2.5.grin	49	1092	9
100412	14:59	654894	1.1.guf	50	1622	4
100412	14:59	654894	2.4.moon	51	2466	9
100412	14:59	654894	1.1.ryng	52	2982	2
100412	14:59	654894	2.1.but	53	3477	4
100412	14:59	654894	1.5.fuw	54	2544	4
100412	14:59	654894	1.6.celm	55	2337	5
100412	14:59	654894	2.5.bar	56	4489	7
100412	14:59	654894	1.1.mur	57	4965	3
100412	14:59	654894	1.3.tove	58	2604	4
100412	14:59	654894	2.4.tidy	59	2322	9
100412	14:59	654894	2.1.fun	60	635	9
100412	14:59	654894	1.4.boog	61	1583	4
100412	14:59	654894	1.3.vabe	62	1181	5
100412	14:59	654894	1.4.yoof	63	11179	5
100412	14:59	654894	1.1.nuv	64	2789	2
100412	14:59	654894	2.3.hate	65	2123	1
100412	14:59	654894	1.1.gub	66	1404	2
100412	14:59	654894	1.3.jofe	67	1978	5
100412	14:59	654894	2.3.time	68	3105	7
100412	14:59	654894	2.5.bomb	69	1667	1
100412	14:59	654894	1.2.lale	70	4589	5
100412	14:59	654894	1.4.yeeb	71	4428	4
100412	14:59	654894	2.3.more	72	3193	8
100412	14:59	654894	2.1.buy	73	2680	7
100412	14:59	654894	1.3.yane	74	6091	5
100412	14:59	654894	2.3.obey	75	6958	4
100412	14:59	654894	1.6.zote	76	1200	4
100412	14:59	654894	2.2.leap	77	1669	8
100412	14:59	654894	2.4.body	78	1432	8
100412	14:59	654894	2.4.part	79	1620	6
100412	14:59	654894	1.1.vuy	80	1969	4
100412	14:59	654894	1.1.ghun	81	1072	4
100412	14:59	654894	1.3.anay	82	2146	3
100412	14:59	654894	1.4.moob	83	3002	4
100412	14:59	654894	2.5.unit	84	1800	7
100412	14:59	654894	1.1.bryg	85	1390	5
100412	14:59	654894	2.1.guy	86	2468	8
100412	14:59	654894	1.6.dofe	87	6031	5
100412	14:59	654894	1.2.likk	88	3916	1
100412	14:59	654894	2.4.foam	89	3110	6
100412	14:59	654894	2.2.slow	90	1920	1
100412	14:59	654894	2.6.evil	91	777	1
100412	14:59	654894	1.5.vaf	92	2600	5
100412	14:59	654894	1.5.zyr	93	2438	3
100412	14:59	654894	1.3.jafe	94	1210	3
100412	14:59	654894	2.3.hard	95	1967	1
100412	14:59	654894	2.5.non	96	5478	2
100412	14:59	654894	1.5.jaj	97	9434	3
100412	14:59	654894	2.4.flag	98	1984	8
100412	14:59	654894	2.3.blue	99	1415	9
100412	14:59	654894	2.6.pain	100	1500	1
100412	14:59	654894	2.6.dog	101	2133	8
100412	14:59	654894	1.3.yave	102	1477	2
100412	14:59	654894	1.6.lim	103	2696	5
100412	14:59	654894	1.6.joi	104	2290	6
100412	14:59	654894	1.2.zeed	105	2293	4
100412	14:59	654894	1.4.voom	106	3007	6
100412	14:59	654894	2.1.rut	107	1325	2
100412	14:59	654894	1.6.soog	108	1509	3
100412	14:59	654894	2.6.mask	109	3703	2
100412	14:59	654894	2.1.thy	110	2305	5
100412	14:59	654894	2.5.boy	111	1411	8
100412	14:59	654894	2.2.dead	112	1352	1
100412	14:59	654894	2.3.name	113	2056	8
100412	14:59	654894	2.5.arm	114	2443	8
100412	14:59	654894	1.5.yeb	115	1568	4
100412	14:59	654894	1.4.foob	116	2119	5
100412	14:59	654894	2.2.lop	117	1368	4
100412	14:59	654894	1.1.vun	118	1231	5
100412	14:59	654894	1.6.kabe	119	2603	3
100412	14:59	654894	1.5.bih	120	1928	3
100812	11:12	87	speed	1	2594	67
100812	11:12	87	error	2	1857	98
100812	11:12	87	whichhand	3	6230	right
100812	11:12	87	2.5.fat	1	3821	1
100812	11:12	87	2.6.dark	2	2915	2
100812	11:12	87	1.5.zyr	3	2420	3
100812	11:12	87	1.2.zape	4	2321	3
100812	11:12	87	1.2.zoke	5	2130	4
100812	11:12	87	1.6.kabe	6	3082	4
100812	11:12	87	2.2.slid	7	2373	4
100812	11:12	87	2.5.non	8	1860	3
100812	11:12	87	1.2.lalo	9	1976	5
100812	11:12	87	1.1.bryg	10	1927	5
100812	11:12	87	2.1.but	11	2000	5
100812	11:12	87	2.3.yore	12	1613	5
100812	11:12	87	1.5.jaj	13	1594	5
100812	11:12	87	1.3.vabe	14	1328	5
100812	11:12	87	2.3.hate	15	2104	3
100812	11:12	87	1.6.lim	16	1698	5
100812	11:12	87	2.3.knot	17	1140	5
100812	11:12	87	2.4.foam	18	1636	5
100812	11:12	87	1.6.dofe	19	800	5
100812	11:12	87	2.4.lump	20	1525	5
100812	11:12	87	1.4.noof	21	798	5
100812	11:12	87	1.1.ryng	22	699	5
100812	11:12	87	1.2.leel	23	1820	6
100812	11:12	87	1.3.jofe	24	1714	5
100812	11:12	87	1.6.vape	25	1794	5
100812	11:12	87	2.3.more	26	1433	6
100812	11:12	87	1.2.likk	27	1861	6
100812	11:12	87	1.1.fryn	28	1584	5
100812	11:12	87	1.3.tove	29	711	5
100812	11:12	87	1.3.anay	30	832	5
100812	11:12	87	2.4.part	31	972	5
100812	11:12	87	2.1.rug	32	1434	5
100812	11:12	87	2.1.guy	33	1966	7
100812	11:12	87	2.2.cell	34	1501	6
100812	11:12	87	1.5.yeb	35	1391	5
100812	11:12	87	1.1.vuy	36	645	5
100812	11:12	87	1.6.nilo	37	529	5
100812	11:12	87	2.4.free	38	2265	9
100812	11:12	87	1.4.voom	39	1420	6
100812	11:12	87	2.1.buy	40	1944	7
100812	11:12	87	1.1.mur	41	1329	5
100812	11:12	87	1.2.lale	42	673	5
100812	11:12	87	1.6.joi	43	700	5
100812	11:12	87	2.4.dump	44	2501	3
100812	11:12	87	1.4.yoof	45	831	5
100812	11:12	87	1.1.guf	46	570	5
100812	11:12	87	1.4.yeeb	47	617	5
100812	11:12	87	2.4.nude	48	2774	5
100812	11:12	87	1.4.teef	49	661	5
100812	11:12	87	1.5.tutk	50	528	5
100812	11:12	87	2.6.scar	51	2240	2
100812	11:12	87	2.1.thy	52	1557	5
100812	11:12	87	2.3.name	53	1972	6
100812	11:12	87	2.5.bomb	54	1379	4
100812	11:12	87	2.2.dead	55	1609	1
100812	11:12	87	2.6.kin	56	1743	3
100812	11:12	87	1.5.feg	57	1447	5
100812	11:12	87	1.2.zake	58	651	5
100812	11:12	87	1.5.vaf	59	502	5
100812	11:12	87	2.5.bar	60	2399	6
100812	11:12	87	1.6.celm	61	989	5
100812	11:12	87	2.4.body	62	1171	6
100812	11:12	87	2.1.bug	63	1969	4
100812	11:12	87	2.6.evil	64	1760	1
100812	11:12	87	1.6.zote	65	1304	5
100812	11:12	87	1.3.yome	66	586	5
100812	11:12	87	2.4.flag	67	2015	6
100812	11:12	87	1.1.ghun	68	1916	5
100812	11:12	87	1.4.moof	69	573	5
100812	11:12	87	2.3.star	70	1140	7
100812	11:12	87	1.2.xad	71	788	5
100812	11:12	87	2.4.moon	72	1162	7
100812	11:12	87	2.2.slow	73	1641	4
100812	11:12	87	1.4.boog	74	1069	5
100812	11:12	87	2.6.slit	75	816	5
100812	11:12	87	2.6.mask	76	1485	5
100812	11:12	87	1.1.gub	77	631	5
100812	11:12	87	1.3.tage	78	603	5
100812	11:12	87	2.2.leap	79	512	5
100812	11:12	87	2.3.blue	80	1081	6
100812	11:12	87	1.5.bih	81	819	5
100812	11:12	87	2.6.cat	82	1816	6
100812	11:12	87	1.1.vun	83	1084	5
100812	11:12	87	2.4.tidy	84	551	5
100812	11:12	87	2.5.arm	85	1574	5
100812	11:12	87	2.3.hard	86	2013	3
100812	11:12	87	2.2.sex	87	1729	5
100812	11:12	87	2.6.pain	88	2162	4
100812	11:12	87	1.4.foob	89	1209	5
100812	11:12	87	1.3.yane	90	574	5
100812	11:12	87	2.5.unit	91	1197	5
100812	11:12	87	2.2.cake	92	1250	7
100812	11:12	87	2.2.sick	93	1221	4
100812	11:12	87	2.1.fun	94	1458	8
100812	11:12	87	2.2.lop	95	1638	5
100812	11:12	87	2.1.fur	96	626	5
100812	11:12	87	2.1.thus	97	887	5
100812	11:12	87	1.2.zeed	98	576	5
100812	11:12	87	2.3.time	99	1015	5
100812	11:12	87	2.6.dog	100	1380	7
100812	11:12	87	1.2.dax	101	626	5
100812	11:12	87	1.5.jufe	102	526	5
100812	11:12	87	1.4.moob	103	631	5
100812	11:12	87	1.5.syg	104	555	5
100812	11:12	87	1.6.vook	105	570	5
100812	11:12	87	1.6.soog	106	553	5
100812	11:12	87	2.5.art	107	1344	7
100812	11:12	87	2.2.lids	108	615	5
100812	11:12	87	2.5.bus	109	868	5
100812	11:12	87	1.1.nuv	110	503	5
100812	11:12	87	1.5.fuw	111	472	5
100812	11:12	87	2.6.milk	112	1235	7
100812	11:12	87	2.1.rut	113	606	5
100812	11:12	87	2.5.boy	114	1299	8
100812	11:12	87	1.4.toof	115	837	5
100812	11:12	87	1.3.mobe	116	561	5
100812	11:12	87	2.3.obey	117	1216	5
100812	11:12	87	1.3.yave	118	501	5
100812	11:12	87	2.5.grin	119	486	5
100812	11:12	87	1.3.jafe	120	616	5
100812	11:39	54	speed	1	2124	31
100812	11:39	54	error	2	3482	93
100812	11:39	54	whichhand	3	7941	right
100812	11:39	54	2.2.lids	1	5684	5
100812	11:39	54	2.4.free	2	3079	9
100812	11:39	54	1.4.voom	3	6714	3
100812	11:39	54	2.2.slow	4	4645	5
100812	11:39	54	1.5.fuw	5	5337	4
100812	11:39	54	2.2.leap	6	2370	5
100812	11:39	54	1.4.toof	7	5226	6
100812	11:39	54	2.6.kin	8	2551	7
100812	11:39	54	1.2.zoke	9	4271	5
100812	11:39	54	1.5.tutk	10	3387	4
100812	11:39	54	1.6.zote	11	4705	5
100812	11:39	54	2.1.thy	12	2668	6
100812	11:39	54	1.6.vape	13	3943	5
100812	11:39	54	1.3.vabe	14	4000	3
100812	11:39	54	2.4.foam	15	2295	8
100812	11:39	54	1.1.fryn	16	4425	5
100812	11:39	54	1.2.zeed	17	4271	4
100812	11:39	54	1.2.zape	18	3658	6
100812	11:39	54	2.1.fun	19	2663	9
100812	11:39	54	2.4.dump	20	2642	1
100812	11:39	54	2.1.thus	21	2846	5
100812	11:39	54	2.2.dead	22	2194	1
100812	11:39	54	1.1.nuv	23	3449	3
100812	11:39	54	2.6.slit	24	2829	4
100812	11:39	54	1.5.jufe	25	2369	4
100812	11:39	54	1.1.vun	26	3088	5
100812	11:39	54	2.4.part	27	2875	6
100812	11:39	54	1.4.moob	28	4566	5
100812	11:39	54	1.6.joi	29	6854	5
100812	11:39	54	2.6.scar	30	2627	3
100812	11:39	54	2.5.fat	31	2432	2
100812	11:39	54	1.6.soog	32	2501	5
100812	11:39	54	2.1.bug	33	2263	4
100812	11:39	54	2.4.moon	34	2394	7
100812	11:39	54	2.4.nude	35	3864	5
100812	11:39	54	2.2.sex	36	3988	9
100812	11:39	54	2.5.arm	37	3315	6
100812	11:39	54	2.2.lop	38	2716	5
100812	11:39	54	2.5.bus	39	2069	5
100812	11:39	54	2.1.but	40	3872	6
100812	11:39	54	1.1.guf	41	2388	5
100812	11:39	54	2.5.bar	42	2106	7
100812	11:39	54	1.2.dax	43	4588	6
100812	11:39	54	2.6.dark	44	3211	7
100812	11:39	54	1.4.noof	45	6849	6
100812	11:39	54	2.3.hard	46	4606	3
100812	11:39	54	1.2.leel	47	4269	5
100812	11:39	54	2.5.grin	48	2640	9
100812	11:39	54	1.5.zyr	49	6525	5
100812	11:39	54	1.5.jaj	50	3407	4
100812	11:39	54	1.3.tage	51	6549	5
100812	11:39	54	1.3.yome	52	2526	6
100812	11:39	54	1.5.bih	53	3888	4
100812	11:39	54	1.6.lim	54	2411	5
100812	11:39	54	1.3.jafe	55	2833	5
100812	11:39	54	2.3.hate	56	4773	4
100812	11:39	54	1.6.nilo	57	7461	5
100812	11:39	54	1.1.bryg	58	4657	4
100812	11:39	54	2.1.fur	59	2310	7
100812	11:39	54	1.1.ghun	60	4015	4
100812	11:39	54	2.3.star	61	2021	8
100812	11:39	54	2.3.yore	62	4971	5
100812	11:39	54	1.3.anay	63	4306	5
100812	11:39	54	1.2.xad	64	2749	3
100812	11:39	54	1.6.celm	65	3868	5
100812	11:39	54	2.3.knot	66	4816	5
100812	11:39	54	1.5.feg	67	3070	5
100812	11:39	54	1.6.dofe	68	5257	4
100812	11:39	54	2.5.art	69	2694	7
100812	11:39	54	1.4.yeeb	70	6040	5
100812	11:39	54	1.4.yoof	71	5838	6
100812	11:39	54	2.2.cake	72	2180	9
100812	11:39	54	2.3.obey	73	3058	5
100812	11:39	54	2.1.guy	74	2382	7
100812	11:39	54	1.3.mobe	75	3029	5
100812	11:39	54	2.5.unit	76	2129	5
100812	11:39	54	1.1.vuy	77	3945	4
100812	11:39	54	1.3.yave	78	10449	5
100812	11:39	54	2.4.tidy	79	2752	9
100812	11:39	54	1.2.zake	80	6432	5
100812	11:39	54	1.1.gub	81	3222	6
100812	11:39	54	1.5.vaf	82	2307	4
100812	11:39	54	1.5.yeb	83	6580	5
100812	11:39	54	1.5.syg	84	4236	5
100812	11:39	54	1.3.tove	85	8217	6
100812	11:39	54	2.1.rut	86	2600	5
100812	11:39	54	1.4.foob	87	4430	7
100812	11:39	54	2.6.pain	88	3571	1
100812	11:39	54	2.2.sick	89	2162	1
100812	11:39	54	1.3.jofe	90	5090	5
100812	11:39	54	1.2.likk	91	3925	6
100812	11:39	54	1.4.teef	92	2422	6
100812	11:39	54	2.5.non	93	1804	5
100812	11:39	54	1.6.kabe	94	8161	5
100812	11:39	54	1.2.lalo	95	7682	6
100812	11:39	54	2.3.blue	96	2254	8
100812	11:39	54	2.3.more	97	5426	6
100812	11:39	54	1.2.lale	98	3896	6
100812	11:39	54	2.6.cat	99	1778	8
100812	11:39	54	2.1.buy	100	2249	5
100812	11:39	54	2.6.mask	101	2443	5
100812	11:39	54	2.6.milk	102	1681	7
100812	11:39	54	2.4.flag	103	1938	6
100812	11:39	54	2.3.name	104	2659	9
100812	11:39	54	2.3.time	105	2103	9
100812	11:39	54	1.1.ryng	106	2649	5
100812	11:39	54	2.6.evil	107	6620	4
100812	11:39	54	2.5.bomb	108	1659	1
100812	11:39	54	1.6.vook	109	3007	5
100812	11:39	54	1.3.yane	110	5604	5
100812	11:39	54	2.6.dog	111	2083	9
100812	11:39	54	2.2.slid	112	3078	5
100812	11:39	54	2.1.rug	113	2537	5
100812	11:39	54	1.1.mur	114	3753	5
100812	11:39	54	2.4.lump	115	2033	4
100812	11:39	54	1.4.boog	116	2101	4
100812	11:39	54	2.2.cell	117	1631	9
100812	11:39	54	1.4.moof	118	12107	6
100812	11:39	54	2.4.body	119	1944	5
100812	11:39	54	2.5.boy	120	2208	9
