date	time	subject	trialcode	trialnum	latency	response
092412	11:59	456456	speed	1	5154	30
092412	11:59	456456	error	2	4412	100
092412	11:59	456456	whichhand	3	19514	left
092412	11:59	456456	1.2.lale	1	5407	9
092412	11:59	456456	2.6.milk	2	1008	5
092412	11:59	456456	2.3.time	3	1566	6
092412	11:59	456456	2.6.kin	4	3189	0
092512	13:55	56	speed	1	18483	36
092512	13:55	56	error	2	7740	94
092512	13:55	56	whichhand	3	10246	right
092512	13:55	56	1.4.voom	1	10843	6
092512	13:55	56	2.5.boy	2	6890	9
092512	13:55	56	2.2.cell	3	7471	5
092512	13:55	56	2.3.name	4	1780	7
092512	13:55	56	1.6.nilo	5	3155	5
092512	13:55	56	1.6.joi	6	3324	1
092512	13:55	56	2.1.fun	7	2054	9
092512	13:55	56	2.6.milk	8	2323	5
092512	13:55	56	1.4.foob	9	2836	2
092512	13:55	56	1.1.ryng	10	1970	2
092512	13:55	56	2.1.guy	11	1281	9
092512	13:55	56	1.2.zoke	12	2180	6
092512	13:55	56	2.4.moon	13	4155	7
092512	13:55	56	2.1.rug	14	1684	4
092512	13:55	56	1.4.boog	15	1495	5
092512	13:55	56	1.2.zake	16	1914	6
092512	13:55	56	2.1.bug	17	3180	1
092512	13:55	56	2.6.mask	18	1491	5
092512	13:55	56	2.1.thy	19	1558	3
092512	13:55	56	1.4.moob	20	2774	4
092512	13:55	56	1.3.jafe	21	1342	4
092512	13:55	56	2.1.thus	22	1631	3
092512	13:55	56	1.3.yave	23	4107	5
092512	13:55	56	1.1.nuv	24	2702	2
092512	13:55	56	1.5.yeb	25	1977	5
092512	13:55	56	2.6.cat	26	7632	3
092512	13:55	56	2.3.knot	27	3119	5
092512	13:55	56	2.6.slit	28	2946	5
092512	13:55	56	2.2.cake	29	2186	8
092512	13:55	56	1.2.leel	30	3129	5
092512	13:55	56	1.5.jaj	31	2019	5
092512	13:55	56	1.1.bryg	32	1817	1
092512	13:55	56	2.5.bomb	33	1686	1
092512	13:55	56	2.6.dog	34	1489	9
092512	13:55	56	1.4.teef	35	3132	3
092512	13:55	56	1.3.tove	36	1485	3
092512	13:55	56	1.6.zote	37	1800	4
092512	13:55	56	1.6.kabe	38	4246	5
092512	13:55	56	1.2.zape	39	2779	6
092512	13:55	56	2.2.lop	40	4434	5
092512	13:55	56	2.3.hate	41	1768	1
092512	13:55	56	1.4.yoof	42	1568	3
092512	13:55	56	1.5.fuw	43	3999	2
092512	13:55	56	1.1.mur	44	1326	2
092512	13:55	56	1.4.toof	45	848	2
092512	13:55	56	2.2.dead	46	1371	1
092512	13:55	56	1.3.yane	47	1404	3
092512	13:55	56	2.3.obey	48	2345	6
092512	13:55	56	1.4.yeeb	49	1938	3
092512	13:55	56	2.5.bus	50	1747	6
092512	13:55	56	1.6.soog	51	1627	3
092512	13:55	56	2.5.bar	52	1337	1
092512	13:55	56	1.1.vun	53	1210	2
092512	13:55	56	2.4.lump	54	1632	1
092512	13:55	56	1.2.lalo	55	2189	6
092512	13:55	56	2.4.foam	56	2172	8
092512	13:55	56	1.3.mobe	57	1347	3
092512	13:55	56	2.4.body	58	3620	4
092512	13:55	56	1.2.xad	59	1658	3
092512	13:55	56	2.5.non	60	1334	3
092512	13:55	56	1.3.anay	61	1294	3
092512	13:55	56	2.3.hard	62	2449	4
092512	13:55	56	1.2.likk	63	3077	5
092512	13:55	56	1.1.fryn	64	3146	4
092512	13:55	56	2.2.slid	65	4426	6
092512	13:55	56	2.3.yore	66	1841	4
092512	13:55	56	1.4.noof	67	3022	5
092512	13:55	56	2.4.tidy	68	1852	7
092512	13:55	56	2.1.but	69	2577	2
092512	13:55	56	1.5.zyr	70	2216	3
092512	13:55	56	2.6.dark	71	2182	7
092512	13:55	56	2.2.slow	72	1397	5
092512	13:55	56	2.6.kin	73	3755	4
092512	13:55	56	1.2.zeed	74	1676	3
092512	13:55	56	2.2.lids	75	2144	2
092512	13:55	56	1.5.vaf	76	2337	3
092512	13:55	56	1.1.gub	77	1242	3
092512	13:55	56	1.6.vape	78	4710	4
092512	13:55	56	2.5.fat	79	1634	1
092512	13:55	56	1.5.feg	80	4287	3
092512	13:55	56	2.5.art	81	1859	8
092512	13:55	56	2.3.blue	82	1567	9
092512	13:55	56	2.5.unit	83	2294	5
092512	13:55	56	2.2.leap	84	1569	9
092512	13:55	56	2.6.scar	85	1969	2
092512	13:55	56	1.2.dax	86	1625	3
092512	13:55	56	1.2.lale	87	1542	5
092512	13:55	56	2.3.time	88	1831	8
092512	13:55	56	2.5.arm	89	2036	6
092512	13:55	56	1.3.tage	90	1505	3
092512	13:55	56	2.2.sex	91	6115	5
092512	13:55	56	2.6.pain	92	2406	1
092512	13:55	56	1.6.celm	93	2005	3
092512	13:55	56	2.4.free	94	1611	9
092512	13:55	56	1.3.yome	95	1969	4
092512	13:55	56	2.6.evil	96	1473	1
092512	13:55	56	2.5.grin	97	11148	9
092512	13:55	56	2.3.star	98	1232	9
092512	13:55	56	2.1.buy	99	8028	9
092512	13:55	56	2.4.flag	100	1059	9
092512	13:55	56	1.5.jufe	101	2584	3
092512	13:55	56	2.3.more	102	1991	6
092512	13:55	56	1.6.vook	103	2158	3
092512	13:55	56	2.1.fur	104	2422	8
092512	13:55	56	1.4.moof	105	1420	5
092512	13:55	56	1.3.jofe	106	1617	3
092512	13:55	56	1.5.syg	107	1159	3
092512	13:55	56	1.1.vuy	108	1199	1
092512	13:55	56	2.4.nude	109	4837	2
092512	13:55	56	2.4.dump	110	1683	1
092512	13:55	56	1.1.guf	111	3838	2
092512	13:55	56	2.2.sick	112	1779	1
092512	13:55	56	2.1.rut	113	8747	3
092512	13:55	56	1.6.lim	114	2357	2
092512	13:55	56	1.5.bih	115	1285	2
092512	13:55	56	1.6.dofe	116	1256	3
092512	13:55	56	1.5.tutk	117	1100	3
092512	13:55	56	1.1.ghun	118	1286	1
092512	13:55	56	2.4.part	119	2697	5
092512	13:55	56	1.3.vabe	120	1300	5
092512	14:11	45	speed	1	4408	33
092512	14:11	45	error	2	3863	96
092512	14:11	45	whichhand	3	6504	right
092512	14:11	45	1.4.moof	1	6168	5
092512	14:11	45	2.4.moon	2	6473	7
092512	14:11	45	2.2.sick	3	3366	1
092512	14:11	45	1.5.feg	4	6934	2
092512	14:11	45	2.1.buy	5	3081	5
092512	14:11	45	1.5.yeb	6	3828	5
092512	14:11	45	1.3.yome	7	4434	5
092512	14:11	45	2.5.grin	8	1743	9
092512	14:11	45	2.3.name	9	2920	9
092512	14:11	45	1.5.zyr	10	27178	2
092512	14:11	45	2.2.slid	11	3073	5
092512	14:11	45	1.6.kabe	12	3406	7
092512	14:11	45	1.3.yave	13	3589	6
092512	14:11	45	2.5.boy	14	3332	7
092512	14:11	45	2.3.hard	15	1902	1
092512	14:11	45	2.1.rut	16	1920	1
092512	14:11	45	1.6.joi	17	1906	9
092512	14:11	45	2.6.milk	18	1684	9
092512	14:11	45	1.6.celm	19	7007	7
092512	14:11	45	2.2.leap	20	1926	7
092512	14:11	45	2.3.knot	21	4472	4
092512	14:11	45	2.2.lop	22	2565	4
092512	14:11	45	2.5.non	23	1861	2
092512	14:11	45	2.3.star	24	1985	9
092512	14:11	45	1.2.leel	25	3056	6
092512	14:11	45	1.2.lalo	26	2397	8
092512	14:11	45	1.2.zake	27	2083	7
092512	14:11	45	2.2.cell	28	1974	9
092512	14:11	45	1.1.mur	29	4382	8
092512	14:11	45	1.5.bih	30	3237	6
092512	14:11	45	1.5.jaj	31	2819	3
092512	14:11	45	2.1.guy	32	3929	6
092512	14:11	45	1.1.ghun	33	2579	1
092512	14:11	45	2.1.but	34	2426	4
092512	14:11	45	1.3.yane	35	4631	7
092512	14:11	45	1.4.voom	36	2933	1
092512	14:11	45	2.6.slit	37	1991	1
092512	14:11	45	1.1.fryn	38	1934	1
092512	14:11	45	1.5.fuw	39	2303	9
092512	14:11	45	2.1.fun	40	1353	9
092512	14:11	45	2.3.hate	41	1321	1
092512	14:11	45	1.4.foob	42	4291	7
092512	14:11	45	2.4.dump	43	1447	1
092512	14:11	45	2.3.time	44	3675	9
092512	14:11	45	1.4.yeeb	45	4255	3
092512	14:11	45	2.6.evil	46	1404	1
092512	14:11	45	2.1.bug	47	1811	4
092512	14:11	45	2.5.bar	48	2744	5
092512	14:11	45	2.6.dark	49	1673	1
092512	14:11	45	1.3.jafe	50	1973	9
092512	14:11	45	1.4.boog	51	2845	6
092512	14:11	45	1.1.vuy	52	2994	5
092512	14:11	45	1.6.lim	53	2490	8
092512	14:11	45	2.1.thus	54	3916	7
092512	14:11	45	1.2.lale	55	2911	5
092512	14:11	45	1.1.guf	56	3473	7
092512	14:11	45	2.5.art	57	1310	9
092512	14:11	45	1.3.mobe	58	3920	3
092512	14:11	45	1.3.vabe	59	2018	5
092512	14:11	45	1.4.toof	60	2216	7
092512	14:11	45	2.3.more	61	1390	9
092512	14:11	45	2.4.part	62	1564	5
092512	14:11	45	2.5.arm	63	2508	9
092512	14:11	45	1.5.jufe	64	2247	7
092512	14:11	45	2.6.kin	65	2851	5
092512	14:11	45	1.2.dax	66	2887	5
092512	14:11	45	1.5.vaf	67	1563	6
092512	14:11	45	1.6.soog	68	3930	7
092512	14:11	45	2.3.yore	69	2900	3
092512	14:11	45	1.2.zoke	70	2375	2
092512	14:11	45	1.6.dofe	71	2191	2
092512	14:11	45	1.2.likk	72	2005	9
092512	14:11	45	2.6.cat	73	1204	9
092512	14:11	45	1.1.bryg	74	3674	5
092512	14:11	45	2.4.flag	75	1606	9
092512	14:11	45	1.6.zote	76	2380	2
092512	14:11	45	1.6.vook	77	2051	8
092512	14:11	45	1.5.tutk	78	2768	5
092512	14:11	45	2.3.blue	79	2024	9
092512	14:11	45	2.4.tidy	80	1253	9
092512	14:11	45	2.6.dog	81	754	9
092512	14:11	45	1.2.xad	82	5425	1
092512	14:11	45	1.5.syg	83	4056	1
092512	14:11	45	2.4.foam	84	1574	5
092512	14:11	45	2.4.body	85	2453	8
092512	14:11	45	1.3.tage	86	3345	7
092512	14:11	45	2.2.slow	87	4042	1
092512	14:11	45	1.4.yoof	88	4016	7
092512	14:11	45	2.5.bus	89	1230	5
092512	14:11	45	1.6.nilo	90	3059	3
092512	14:11	45	2.2.dead	91	1639	1
092512	14:11	45	1.2.zape	92	3428	1
092512	14:11	45	2.1.rug	93	2754	8
092512	14:11	45	1.4.noof	94	3066	5
092512	14:11	45	1.1.nuv	95	3390	6
092512	14:11	45	2.6.mask	96	1310	5
092512	14:11	45	2.4.lump	97	3096	3
092512	14:11	45	1.1.gub	98	3979	6
092512	14:11	45	2.5.unit	99	1459	8
092512	14:11	45	2.5.fat	100	2335	1
092512	14:11	45	1.1.vun	101	3288	9
092512	14:11	45	2.1.thy	102	4475	5
092512	14:11	45	2.2.lids	103	2151	6
092512	14:11	45	1.4.teef	104	1592	7
092512	14:11	45	2.5.bomb	105	1639	1
092512	14:11	45	1.4.moob	106	1604	1
092512	14:11	45	2.2.cake	107	2314	9
092512	14:11	45	1.3.anay	108	5308	5
092512	14:11	45	1.3.tove	109	2943	7
092512	14:11	45	2.3.obey	110	2264	8
092512	14:11	45	2.1.fur	111	1212	5
092512	14:11	45	1.3.jofe	112	1578	5
092512	14:11	45	1.2.zeed	113	1521	5
092512	14:11	45	2.2.sex	114	2723	9
092512	14:11	45	1.1.ryng	115	2101	6
092512	14:11	45	2.6.pain	116	1231	5
092512	14:11	45	2.4.nude	117	2772	6
092512	14:11	45	1.6.vape	118	2228	4
092512	14:11	45	2.6.scar	119	2410	1
092512	14:11	45	2.4.free	120	1344	9
092512	14:28	63	speed	1	2299	71
092512	14:28	63	error	2	1997	92
092512	14:28	63	whichhand	3	10147	Right 
092512	14:28	63	1.3.tove	1	5110	1
092512	14:28	63	2.2.cell	2	4802	5
092512	14:28	63	1.2.lale	3	1761	3
092512	14:28	63	1.5.jufe	4	1937	1
092512	14:28	63	1.4.moob	5	1298	1
092512	14:28	63	1.5.feg	6	1317	1
092512	14:28	63	2.2.slow	7	2438	9
092512	14:28	63	1.2.dax	8	1803	1
092512	14:28	63	1.3.anay	9	1226	1
092512	14:28	63	2.5.arm	10	1319	9
092512	14:28	63	1.2.zeed	11	1624	1
092512	14:28	63	2.1.buy	12	1046	9
092512	14:28	63	2.1.bug	13	1490	9
092512	14:28	63	1.1.ghun	14	1782	1
092512	14:28	63	1.4.noof	15	1204	1
092512	14:28	63	2.3.blue	16	1066	9
092512	14:28	63	2.3.knot	17	1222	1
092512	14:28	63	1.3.vabe	18	1155	1
092512	14:28	63	1.5.bih	19	1075	1
092512	14:28	63	2.1.guy	20	1174	9
092512	14:28	63	1.2.likk	21	1102	1
092512	14:28	63	1.5.fuw	22	1112	1
092512	14:28	63	2.6.scar	23	1578	9
092512	14:28	63	1.5.yeb	24	985	1
092512	14:28	63	1.6.zote	25	1784	1
092512	14:28	63	2.6.pain	26	1087	9
092512	14:28	63	2.1.fur	27	1161	9
092512	14:28	63	2.6.cat	28	1162	9
092512	14:28	63	2.2.sex	29	1346	9
092512	14:28	63	2.5.grin	30	1474	9
092512	14:28	63	1.6.lim	31	1374	1
092512	14:28	63	2.6.mask	32	1941	9
092512	14:28	63	1.4.teef	33	902	1
092512	14:28	63	1.6.vape	34	1792	1
092512	14:28	63	1.4.yeeb	35	1775	1
092512	14:28	63	1.4.voom	36	3607	1
092512	14:28	63	2.3.time	37	1069	9
092512	14:28	63	2.1.rut	38	1465	1
092512	14:28	63	2.5.unit	39	1620	9
092512	14:28	63	1.6.kabe	40	1626	1
092512	14:28	63	1.2.lalo	41	1095	1
092512	14:28	63	2.6.evil	42	1218	9
092512	14:28	63	1.1.vun	43	1264	1
092512	14:28	63	1.1.fryn	44	1315	1
092512	14:28	63	1.2.xad	45	1021	1
092512	14:28	63	2.5.fat	46	1281	9
092512	14:28	63	1.2.zoke	47	2908	1
092512	14:28	63	1.3.mobe	48	663	1
092512	14:28	63	1.5.jaj	49	642	1
092512	14:28	63	1.5.vaf	50	727	1
092512	14:28	63	2.6.milk	51	1345	9
092512	14:28	63	2.4.lump	52	1585	9
092512	14:28	63	2.5.bomb	53	1848	9
092512	14:28	63	2.2.leap	54	844	9
092512	14:28	63	1.6.celm	55	1793	1
092512	14:28	63	2.3.hate	56	1160	9
092512	14:28	63	2.3.obey	57	752	9
092512	14:28	63	1.3.tage	58	1544	1
092512	14:28	63	1.4.moof	59	1192	1
092512	14:28	63	2.5.art	60	1192	9
092512	14:28	63	1.3.yome	61	1126	1
092512	14:28	63	1.3.yane	62	1319	1
092512	14:28	63	2.4.free	63	1641	9
092512	14:28	63	2.4.nude	64	1222	9
092512	14:28	63	2.3.more	65	1723	9
092512	14:28	63	2.5.non	66	1693	1
092512	14:28	63	1.1.bryg	67	1687	1
092512	14:28	63	2.5.bus	68	1626	9
092512	14:28	63	2.6.dog	69	984	9
092512	14:28	63	1.2.zape	70	1087	1
092512	14:28	63	2.2.cake	71	937	9
092512	14:28	63	2.6.kin	72	994	1
092512	14:28	63	2.3.hard	73	969	9
092512	14:28	63	2.2.lop	74	1280	1
092512	14:28	63	2.4.flag	75	2427	9
092512	14:28	63	1.2.zake	76	1177	1
092512	14:28	63	1.1.mur	77	792	1
092512	14:28	63	2.4.part	78	1047	9
092512	14:28	63	2.4.moon	79	1523	9
092512	14:28	63	2.5.boy	80	1004	9
092512	14:28	63	1.4.boog	81	1003	1
092512	14:28	63	2.1.thus	82	1120	9
092512	14:28	63	1.2.leel	83	1042	1
092512	14:28	63	1.4.yoof	84	1151	1
092512	14:28	63	2.2.dead	85	1055	9
092512	14:28	63	2.6.dark	86	1618	9
092512	14:28	63	1.6.joi	87	984	1
092512	14:28	63	1.3.yave	88	1583	1
092512	14:28	63	2.2.slid	89	1526	1
092512	14:28	63	1.6.nilo	90	1287	1
092512	14:28	63	1.5.zyr	91	738	1
092512	14:28	63	1.6.dofe	92	522	1
092512	14:28	63	2.5.bar	93	1060	9
092512	14:28	63	2.3.star	94	440	9
092512	14:28	63	2.1.rug	95	484	9
092512	14:28	63	1.1.gub	96	1119	1
092512	14:28	63	2.1.but	97	1904	9
092512	14:28	63	2.6.slit	98	1651	1
092512	14:28	63	1.6.soog	99	1966	1
092512	14:28	63	1.3.jafe	100	646	1
092512	14:28	63	1.4.foob	101	706	1
092512	14:28	63	1.4.toof	102	548	1
092512	14:28	63	2.4.tidy	103	1108	1
092512	14:28	63	1.1.nuv	104	630	1
092512	14:28	63	1.3.jofe	105	683	1
092512	14:28	63	2.2.sick	106	2493	9
092512	14:28	63	1.5.tutk	107	1432	1
092512	14:28	63	1.1.guf	108	565	1
092512	14:28	63	2.2.lids	109	1188	9
092512	14:28	63	1.1.ryng	110	1259	1
092512	14:28	63	2.4.dump	111	1623	9
092512	14:28	63	2.3.name	112	469	9
092512	14:28	63	2.3.yore	113	952	1
092512	14:28	63	2.4.foam	114	1528	9
092512	14:28	63	1.6.vook	115	1681	1
092512	14:28	63	2.4.body	116	1149	9
092512	14:28	63	2.1.thy	117	1236	1
092512	14:28	63	2.1.fun	118	1073	9
092512	14:28	63	1.5.syg	119	1188	1
092512	14:28	63	1.1.vuy	120	1843	1
100212	14:26	52	speed	1	5577	46
100212	14:26	52	error	2	3153	97
100212	14:26	52	whichhand	3	7713	Right
100212	14:26	52	2.1.rut	1	11475	5
100212	14:26	52	2.6.dog	2	4002	8
100212	14:26	52	1.1.ryng	3	4720	5
100212	14:26	52	1.4.teef	4	4883	3
100212	14:26	52	2.3.obey	5	13639	4
100212	14:26	52	1.3.jafe	6	1984	5
100212	14:26	52	2.3.more	7	3486	7
100212	14:26	52	1.3.jofe	8	7426	4
100212	14:26	52	1.4.foob	9	2442	5
100212	14:26	52	2.3.star	10	5879	9
100212	14:26	52	1.3.yave	11	2755	5
100212	14:26	52	2.6.cat	12	2404	4
100212	14:26	52	2.2.cake	13	2570	7
100212	14:26	52	2.6.milk	14	1706	8
100212	14:26	52	1.1.guf	15	2404	5
100212	14:26	52	2.1.fun	16	1578	8
100212	14:26	52	1.6.vook	17	2795	5
100212	14:26	52	1.2.zoke	18	2481	4
100212	14:26	52	2.2.cell	19	2852	7
100212	14:26	52	1.4.boog	20	1810	5
100212	14:26	52	1.5.zyr	21	4848	5
100212	14:26	52	2.5.grin	22	2469	3
100212	14:26	52	2.2.slow	23	1704	2
100212	14:26	52	2.1.rug	24	2699	5
100212	14:26	52	2.1.guy	25	5237	5
100212	14:26	52	1.6.kabe	26	2019	5
100212	14:26	52	1.2.zape	27	2441	4
100212	14:26	52	1.2.likk	28	2230	5
100212	14:26	52	2.5.non	29	3212	5
100212	14:26	52	1.5.yeb	30	1474	5
100212	14:26	52	2.5.bus	31	2549	6
100212	14:26	52	2.5.fat	32	3197	1
100212	14:26	52	1.4.moob	33	1756	2
100212	14:26	52	1.3.yane	34	1636	5
100212	14:26	52	1.1.bryg	35	2729	5
100212	14:26	52	1.2.leel	36	1683	4
100212	14:26	52	2.4.part	37	5206	5
100212	14:26	52	2.4.lump	38	1965	3
100212	14:26	52	1.3.anay	39	1333	5
100212	14:26	52	2.2.dead	40	1653	1
100212	14:26	52	1.1.fryn	41	2073	3
100212	14:26	52	1.4.voom	42	1806	5
100212	14:26	52	1.6.soog	43	4212	5
100212	14:26	52	1.5.vaf	44	1234	6
100212	14:26	52	2.5.arm	45	4527	6
100212	14:26	52	2.6.slit	46	3529	4
100212	14:26	52	1.2.xad	47	1763	5
100212	14:26	52	1.6.zote	48	1394	5
100212	14:26	52	2.2.lop	49	3537	3
100212	14:26	52	2.6.pain	50	1499	1
100212	14:26	52	2.4.foam	51	2077	7
100212	14:26	52	1.1.mur	52	1440	5
100212	14:26	52	2.4.body	53	2701	6
100212	14:26	52	1.2.lale	54	1968	5
100212	14:26	52	2.5.bar	55	3935	6
100212	14:26	52	1.3.yome	56	3090	5
100212	14:26	52	1.1.ghun	57	4237	5
100212	14:26	52	1.5.syg	58	1651	5
100212	14:26	52	2.5.unit	59	1879	4
100212	14:26	52	1.2.lalo	60	1362	4
100212	14:26	52	1.4.toof	61	1818	5
100212	14:26	52	2.3.name	62	2016	6
100212	14:26	52	1.6.lim	63	1653	6
100212	14:26	52	2.2.slid	64	2450	5
100212	14:26	52	1.4.noof	65	2206	4
100212	14:26	52	2.3.yore	66	3964	5
100212	14:26	52	1.6.joi	67	4917	4
100212	14:26	52	2.5.bomb	68	3303	2
100212	14:26	52	2.6.kin	69	2762	5
100212	14:26	52	2.3.time	70	6530	7
100212	14:26	52	2.1.but	71	3588	3
100212	14:26	52	1.1.nuv	72	2724	5
100212	14:26	52	1.3.mobe	73	5253	4
100212	14:26	52	1.2.zeed	74	1827	5
100212	14:26	52	2.4.dump	75	1897	4
100212	14:26	52	1.3.vabe	76	1995	5
100212	14:26	52	1.5.fuw	77	14409	5
100212	14:26	52	1.4.yoof	78	1715	5
100212	14:26	52	2.5.boy	79	6325	5
100212	14:26	52	2.4.free	80	5128	8
100212	14:26	52	1.5.bih	81	1642	5
100212	14:26	52	1.3.tove	82	1335	5
100212	14:26	52	1.1.vun	83	1111	5
100212	14:26	52	2.4.tidy	84	3529	7
100212	14:26	52	1.6.vape	85	1315	5
100212	14:26	52	2.1.fur	86	14541	7
100212	14:26	52	1.5.feg	87	1338	5
100212	14:26	52	2.2.sex	88	5370	9
100212	14:26	52	2.2.lids	89	4691	5
100212	14:26	52	1.2.dax	90	16615	5
100212	14:26	52	1.2.zake	91	3458	5
100212	14:26	52	2.1.thus	92	1942	4
100212	14:26	52	1.1.gub	93	1248	4
100212	14:26	52	1.5.tutk	94	1395	5
100212	14:26	52	2.5.art	95	2250	7
100212	14:26	52	2.3.knot	96	9902	5
100212	14:26	52	1.1.vuy	97	2187	5
100212	14:26	52	1.5.jaj	98	5802	4
100212	14:26	52	2.6.dark	99	2113	2
100212	14:26	52	1.6.celm	100	4779	5
100212	14:26	52	2.4.moon	101	2220	8
100212	14:26	52	2.4.flag	102	2681	8
100212	14:26	52	1.6.nilo	103	8252	4
100212	14:26	52	2.2.leap	104	4498	6
100212	14:26	52	2.6.mask	105	4318	3
100212	14:26	52	2.2.sick	106	3616	1
100212	14:26	52	2.3.hard	107	25382	5
100212	14:26	52	1.5.jufe	108	1934	5
100212	14:26	52	2.6.evil	109	1902	3
100212	14:26	52	1.4.moof	110	1369	5
100212	14:26	52	2.3.blue	111	1976	7
100212	14:26	52	2.1.thy	112	1928	5
100212	14:26	52	2.1.buy	113	2321	7
100212	14:26	52	1.3.tage	114	1419	5
100212	14:26	52	1.6.dofe	115	1121	5
100212	14:26	52	1.4.yeeb	116	978	5
100212	14:26	52	2.4.nude	117	1089	5
100212	14:26	52	2.1.bug	118	3364	2
100212	14:26	52	2.3.hate	119	9412	2
100212	14:26	52	2.6.scar	120	2253	2
102212	13:40	54	speed	1	3285	52
102212	13:40	54	error	2	4033	92
102212	13:40	54	whichhand	3	29126	right
102212	13:40	54	2.1.thus	1	6807	2
102212	13:40	54	2.6.dog	2	5519	5
102212	13:40	54	1.5.tutk	3	2506	1
102212	13:40	54	1.3.yave	4	1748	2
102212	13:40	54	2.4.body	5	1557	5
102212	13:40	54	1.5.feg	6	1709	2
102212	13:40	54	2.6.evil	7	3431	5
102212	13:40	54	2.5.arm	8	1644	5
102212	13:40	54	2.6.milk	9	1561	6
102212	13:40	54	2.6.scar	10	1449	5
102212	13:40	54	2.4.nude	11	1037	5
102212	13:40	54	1.2.dax	12	1795	1
102212	13:40	54	1.6.celm	13	1369	2
102212	13:40	54	2.6.mask	14	2177	4
102212	13:40	54	2.6.slit	15	1352	5
102212	13:40	54	1.3.jofe	16	2241	5
102212	13:40	54	1.2.zake	17	1566	5
102212	13:40	54	1.6.nilo	18	1245	5
102212	13:40	54	1.5.syg	19	1034	5
102212	13:40	54	1.6.soog	20	1767	5
102212	13:40	54	2.1.guy	21	5014	5
102212	13:40	54	2.4.foam	22	1541	6
102212	13:40	54	1.6.dofe	23	950	5
102212	13:40	54	1.4.toof	24	1254	6
102212	13:40	54	2.2.sick	25	1450	5
102212	13:40	54	2.6.dark	26	1710	5
102212	13:40	54	1.2.zape	27	888	5
102212	13:40	54	1.4.noof	28	1131	5
102212	13:40	54	2.6.pain	29	2892	4
102212	13:40	54	1.2.zoke	30	1855	5
102212	13:40	54	1.6.lim	31	1564	5
102212	13:40	54	2.3.name	32	1299	5
102212	13:40	54	2.4.lump	33	1709	5
102212	13:40	54	2.1.buy	34	1951	6
102212	13:40	54	1.3.yane	35	1351	5
102212	13:40	54	2.4.moon	36	1247	6
102212	13:40	54	1.3.anay	37	3259	5
102212	13:40	54	2.3.hate	38	1201	5
102212	13:40	54	1.5.vaf	39	870	5
102212	13:40	54	1.4.teef	40	1274	5
102212	13:40	54	1.1.bryg	41	2205	4
102212	13:40	54	2.4.free	42	1884	6
102212	13:40	54	2.5.unit	43	1142	5
102212	13:40	54	2.1.fun	44	903	5
102212	13:40	54	2.5.grin	45	2201	6
102212	13:40	54	2.1.rut	46	1632	5
102212	13:40	54	2.1.but	47	1205	5
102212	13:40	54	2.1.rug	48	963	5
102212	13:40	54	2.6.kin	49	1034	5
102212	13:40	54	1.1.fryn	50	1239	5
102212	13:40	54	1.1.mur	51	772	5
102212	13:40	54	1.1.guf	52	1395	5
102212	13:40	54	2.2.slid	53	1377	5
102212	13:40	54	1.1.vun	54	696	5
102212	13:40	54	1.5.jaj	55	731	5
102212	13:40	54	1.1.ghun	56	1267	5
102212	13:40	54	2.3.more	57	1679	5
102212	13:40	54	2.3.star	58	530	5
102212	13:40	54	2.5.boy	59	563	5
102212	13:40	54	2.4.part	60	642	5
102212	13:40	54	1.4.yeeb	61	598	5
102212	13:40	54	2.4.tidy	62	1020	5
102212	13:40	54	2.2.lop	63	833	5
102212	13:40	54	1.5.bih	64	1142	5
102212	13:40	54	2.2.cell	65	966	5
102212	13:40	54	2.3.blue	66	2718	5
102212	13:40	54	1.5.yeb	67	944	5
102212	13:40	54	2.3.obey	68	873	5
102212	13:40	54	2.3.knot	69	844	5
102212	13:40	54	1.5.fuw	70	536	5
102212	13:40	54	2.4.dump	71	529	5
102212	13:40	54	1.1.ryng	72	650	5
102212	13:40	54	2.2.slow	73	998	5
102212	13:40	54	2.2.dead	74	1188	5
102212	13:40	54	2.4.flag	75	891	5
102212	13:40	54	2.5.bomb	76	742	5
102212	13:40	54	1.6.joi	77	582	5
102212	13:40	54	2.5.fat	78	853	5
102212	13:40	54	1.4.foob	79	953	5
102212	13:40	54	1.5.jufe	80	945	5
102212	13:40	54	2.2.lids	81	1386	5
102212	13:40	54	2.1.thy	82	768	5
102212	13:40	54	1.4.voom	83	479	5
102212	13:40	54	1.6.kabe	84	658	5
102212	13:40	54	2.1.fur	85	422	5
102212	13:40	54	1.3.tage	86	555	5
102212	13:40	54	1.3.vabe	87	675	5
102212	13:40	54	1.4.moob	88	462	5
102212	13:40	54	1.3.yome	89	450	5
102212	13:40	54	1.1.nuv	90	398	5
102212	13:40	54	2.3.time	91	564	5
102212	13:40	54	1.2.lale	92	467	5
102212	13:40	54	2.6.cat	93	1502	6
102212	13:40	54	1.3.jafe	94	808	5
102212	13:40	54	2.5.art	95	1198	6
102212	13:40	54	1.2.leel	96	2300	5
102212	13:40	54	1.4.moof	97	1198	6
102212	13:40	54	2.1.bug	98	892	5
102212	13:40	54	1.4.boog	99	655	5
102212	13:40	54	2.3.yore	100	531	5
102212	13:40	54	1.5.zyr	101	516	5
102212	13:40	54	1.3.tove	102	372	5
102212	13:40	54	2.2.leap	103	204	5
102212	13:40	54	1.2.likk	104	586	5
102212	13:40	54	1.1.gub	105	609	5
102212	13:40	54	1.2.zeed	106	886	5
102212	13:40	54	1.1.vuy	107	649	5
102212	13:40	54	2.5.non	108	501	5
102212	13:40	54	2.2.cake	109	431	5
102212	13:40	54	1.6.zote	110	603	5
102212	13:40	54	1.6.vook	111	665	5
102212	13:40	54	1.2.lalo	112	388	5
102212	13:40	54	2.2.sex	113	3362	6
102212	13:40	54	2.3.hard	114	2363	5
102212	13:40	54	1.4.yoof	115	1171	5
102212	13:40	54	1.6.vape	116	562	5
102212	13:40	54	1.2.xad	117	882	5
102212	13:40	54	2.5.bar	118	1381	5
102212	13:40	54	1.3.mobe	119	803	5
102212	13:40	54	2.5.bus	120	865	5
102212	15:09	789789746456465	speed	1	4792	42
102212	15:09	789789746456465	error	2	3024	97
102212	15:09	789789746456465	whichhand	3	5070	right
102212	15:09	789789746456465	1.6.zote	1	7556	5
102212	15:09	789789746456465	1.6.dofe	2	2606	4
102212	15:09	789789746456465	2.1.guy	3	2452	5
102212	15:09	789789746456465	1.5.bih	4	2128	3
102212	15:09	789789746456465	2.6.evil	5	1994	3
102212	15:09	789789746456465	1.5.yeb	6	2233	6
102212	15:09	789789746456465	2.4.free	7	4326	9
102212	15:09	789789746456465	2.6.dog	8	1520	9
102212	15:09	789789746456465	1.3.yane	9	1378	6
102212	15:09	789789746456465	1.2.likk	10	2497	5
102212	15:09	789789746456465	2.2.slow	11	1220	4
102212	15:09	789789746456465	1.1.gub	12	1593	4
102212	15:09	789789746456465	2.4.moon	13	1424	7
102212	15:09	789789746456465	1.4.yoof	14	2574	5
102212	15:09	789789746456465	1.6.joi	15	1813	6
102212	15:09	789789746456465	1.1.nuv	16	2035	4
102212	15:09	789789746456465	2.1.but	17	1520	5
102212	15:09	789789746456465	2.1.thus	18	1537	7
102212	15:09	789789746456465	2.2.slid	19	1530	8
102212	15:09	789789746456465	1.2.xad	20	2467	5
102212	15:09	789789746456465	1.4.moof	21	3527	6
102212	15:09	789789746456465	2.6.pain	22	3410	1
102212	15:09	789789746456465	2.3.hate	23	1328	1
102212	15:09	789789746456465	1.1.ryng	24	1961	6
102212	15:09	789789746456465	1.4.foob	25	1522	5
102212	15:09	789789746456465	1.3.tage	26	1243	5
102212	15:09	789789746456465	1.6.nilo	27	2552	7
102212	15:09	789789746456465	2.4.tidy	28	1289	7
102212	15:09	789789746456465	1.6.kabe	29	1907	7
102212	15:09	789789746456465	2.3.yore	30	1806	6
102212	15:09	789789746456465	1.4.toof	31	1396	5
102212	15:09	789789746456465	2.5.art	32	1170	6
102212	15:09	789789746456465	2.1.rug	33	1762	6
102212	15:09	789789746456465	2.2.cake	34	4058	7
102212	15:09	789789746456465	1.5.syg	35	1223	5
102212	15:09	789789746456465	1.6.celm	36	2804	6
102212	15:09	789789746456465	1.2.dax	37	883	5
102212	15:09	789789746456465	1.1.vuy	38	3006	4
102212	15:09	789789746456465	2.3.more	39	1676	7
102212	15:09	789789746456465	2.2.lop	40	2144	5
102212	15:09	789789746456465	1.4.voom	41	1449	6
102212	15:09	789789746456465	1.1.ghun	42	2373	6
102212	15:09	789789746456465	2.6.dark	43	2901	7
102212	15:09	789789746456465	1.6.vape	44	2895	2
102212	15:09	789789746456465	2.5.boy	45	1386	5
102212	15:09	789789746456465	1.1.fryn	46	3928	6
102212	15:09	789789746456465	2.2.cell	47	3274	8
102212	15:09	789789746456465	2.5.bomb	48	1462	4
102212	15:09	789789746456465	1.1.vun	49	1818	4
102212	15:09	789789746456465	2.4.foam	50	2687	9
102212	15:09	789789746456465	2.6.cat	51	1715	4
102212	15:09	789789746456465	2.1.fun	52	2093	9
102212	15:09	789789746456465	2.4.part	53	1640	7
102212	15:09	789789746456465	1.3.yome	54	1292	4
102212	15:09	789789746456465	2.3.name	55	1295	5
102212	15:09	789789746456465	1.3.tove	56	1946	5
102212	15:09	789789746456465	1.4.yeeb	57	2306	5
102212	15:09	789789746456465	2.4.dump	58	2493	4
102212	15:09	789789746456465	2.3.knot	59	2208	8
102212	15:09	789789746456465	1.2.zape	60	2902	5
102212	15:09	789789746456465	1.1.bryg	61	1609	6
102212	15:09	789789746456465	1.2.lalo	62	2903	6
102212	15:09	789789746456465	2.5.grin	63	1474	9
102212	15:09	789789746456465	1.3.jafe	64	1518	5
102212	15:09	789789746456465	2.3.hard	65	2263	4
102212	15:09	789789746456465	1.6.lim	66	1466	4
102212	15:09	789789746456465	1.4.teef	67	1758	5
102212	15:09	789789746456465	1.1.mur	68	2446	5
102212	15:09	789789746456465	2.2.sick	69	1491	4
102212	15:09	789789746456465	1.5.zyr	70	1502	5
102212	15:09	789789746456465	1.3.mobe	71	3872	6
102212	15:09	789789746456465	1.5.feg	72	2900	5
102212	15:09	789789746456465	1.5.jaj	73	2215	5
102212	15:09	789789746456465	2.2.lids	74	1093	6
102212	15:09	789789746456465	1.2.zeed	75	1207	5
102212	15:09	789789746456465	1.2.zake	76	1829	6
102212	15:09	789789746456465	1.2.lale	77	1258	5
102212	15:09	789789746456465	1.5.vaf	78	1238	4
102212	15:09	789789746456465	1.3.anay	79	2075	5
102212	15:09	789789746456465	1.4.boog	80	1527	7
102212	15:09	789789746456465	1.3.jofe	81	800	5
102212	15:09	789789746456465	1.3.yave	82	1551	6
102212	15:09	789789746456465	2.2.sex	83	2775	8
102212	15:09	789789746456465	1.5.jufe	84	1038	5
102212	15:09	789789746456465	2.4.body	85	2291	7
102212	15:09	789789746456465	2.6.slit	86	1678	6
102212	15:09	789789746456465	2.5.arm	87	2306	5
102212	15:09	789789746456465	2.1.rut	88	2700	3
102212	15:09	789789746456465	1.4.moob	89	2287	6
102212	15:09	789789746456465	2.1.thy	90	2690	6
102212	15:09	789789746456465	2.3.time	91	1205	5
102212	15:09	789789746456465	2.5.unit	92	1875	8
102212	15:09	789789746456465	2.4.lump	93	2439	5
102212	15:09	789789746456465	1.3.vabe	94	932	5
102212	15:09	789789746456465	2.4.flag	95	1644	5
102212	15:09	789789746456465	2.3.star	96	1802	9
102212	15:09	789789746456465	2.6.scar	97	2696	6
102212	15:09	789789746456465	1.6.vook	98	1179	5
102212	15:09	789789746456465	2.2.dead	99	2482	2
102212	15:09	789789746456465	1.4.noof	100	1229	5
102212	15:09	789789746456465	2.6.mask	101	3322	6
102212	15:09	789789746456465	1.5.tutk	102	1092	5
102212	15:09	789789746456465	2.3.obey	103	1702	3
102212	15:09	789789746456465	2.3.blue	104	1873	9
102212	15:09	789789746456465	2.1.buy	105	1988	6
102212	15:09	789789746456465	2.2.leap	106	1867	8
102212	15:09	789789746456465	1.6.soog	107	879	5
102212	15:09	789789746456465	2.6.milk	108	1362	9
102212	15:09	789789746456465	2.1.fur	109	1962	6
102212	15:09	789789746456465	2.5.fat	110	1538	3
102212	15:09	789789746456465	1.1.guf	111	1611	4
102212	15:09	789789746456465	2.5.non	112	1497	4
102212	15:09	789789746456465	1.2.zoke	113	1091	5
102212	15:09	789789746456465	2.5.bar	114	1318	6
102212	15:09	789789746456465	2.4.nude	115	1727	5
102212	15:09	789789746456465	2.5.bus	116	1329	5
102212	15:09	789789746456465	2.6.kin	117	1226	6
102212	15:09	789789746456465	1.5.fuw	118	823	5
102212	15:09	789789746456465	2.1.bug	119	916	6
102212	15:09	789789746456465	1.2.leel	120	742	5
102312	13:59	50	speed	1	3201	57
102312	13:59	50	error	2	3897	100
102312	13:59	50	whichhand	3	9707	right
102312	13:59	50	1.2.zoke	1	18940	4
102312	13:59	50	2.5.grin	2	3706	6
102312	13:59	50	1.5.yeb	3	3413	3
102312	13:59	50	2.4.free	4	2651	8
102312	13:59	50	1.5.jufe	5	3224	2
102312	13:59	50	1.4.voom	6	2774	5
102312	13:59	50	2.5.bar	7	3182	5
102312	13:59	50	2.4.part	8	5309	6
102312	13:59	50	1.5.bih	9	3281	4
102312	13:59	50	1.1.gub	10	3940	3
102312	13:59	50	2.2.lop	11	2150	3
102312	13:59	50	2.6.pain	12	2350	1
102312	13:59	50	1.1.bryg	13	3183	3
102312	13:59	50	1.3.yome	14	2806	4
102312	13:59	50	2.2.dead	15	1965	1
102312	13:59	50	2.1.fur	16	2532	7
102312	13:59	50	2.2.sick	17	3237	2
102312	13:59	50	1.5.jaj	18	2611	4
102312	13:59	50	1.3.jofe	19	3369	5
102312	13:59	50	2.4.foam	20	3162	5
102312	13:59	50	1.5.zyr	21	3049	5
102312	13:59	50	1.5.tutk	22	4174	3
102312	13:59	50	2.3.name	23	2199	6
102312	13:59	50	2.1.thus	24	2765	5
102312	13:59	50	1.3.mobe	25	3317	4
102312	13:59	50	1.6.joi	26	2599	8
102312	13:59	50	1.2.zeed	27	2750	6
102312	13:59	50	2.1.fun	28	3686	9
102312	13:59	50	1.1.guf	29	2434	4
102312	13:59	50	2.3.star	30	2463	8
102312	13:59	50	1.2.xad	31	2530	4
102312	13:59	50	1.2.leel	32	2132	5
102312	13:59	50	2.2.cake	33	2885	7
102312	13:59	50	2.2.slid	34	2928	5
102312	13:59	50	2.2.slow	35	2105	3
102312	13:59	50	2.6.scar	36	1852	3
102312	13:59	50	1.4.boog	37	2153	4
102312	13:59	50	1.5.fuw	38	3681	5
102312	13:59	50	2.3.blue	39	5788	7
102312	13:59	50	2.1.but	40	2988	5
102312	13:59	50	1.4.moof	41	1588	5
102312	13:59	50	1.4.yoof	42	1755	4
102312	13:59	50	1.1.mur	43	4763	6
102312	13:59	50	1.1.nuv	44	4060	5
102312	13:59	50	2.5.unit	45	2049	6
102312	13:59	50	2.2.cell	46	1741	6
102312	13:59	50	1.3.yane	47	3014	5
102312	13:59	50	1.6.dofe	48	1900	2
102312	13:59	50	2.1.rug	49	2431	5
102312	13:59	50	2.4.dump	50	2804	1
102312	13:59	50	1.2.likk	51	5234	6
102312	13:59	50	1.3.tove	52	2952	5
102312	13:59	50	1.4.toof	53	11769	4
102312	13:59	50	2.5.non	54	2532	3
102312	13:59	50	1.4.foob	55	3053	3
102312	13:59	50	2.4.moon	56	3289	8
102312	13:59	50	2.5.bus	57	4421	5
102312	13:59	50	1.2.dax	58	1787	5
102312	13:59	50	2.2.sex	59	4267	6
102312	13:59	50	1.4.yeeb	60	6862	4
102312	13:59	50	1.6.celm	61	3180	5
102312	13:59	50	2.3.hard	62	3995	2
102312	13:59	50	2.6.mask	63	2355	4
102312	13:59	50	1.4.teef	64	3131	5
102312	13:59	50	1.1.ghun	65	4021	2
102312	13:59	50	2.3.yore	66	2323	3
102312	13:59	50	1.5.feg	67	4852	3
102312	13:59	50	2.1.buy	68	3490	5
102312	13:59	50	1.3.anay	69	2933	6
102312	13:59	50	2.5.bomb	70	2087	1
102312	13:59	50	1.6.vape	71	4234	3
102312	13:59	50	2.1.guy	72	6063	7
102312	13:59	50	1.3.tage	73	3396	5
102312	13:59	50	2.3.more	74	1859	8
102312	13:59	50	2.6.slit	75	2560	2
102312	13:59	50	1.6.lim	76	2968	5
102312	13:59	50	2.1.rut	77	4488	3
102312	13:59	50	2.6.cat	78	2820	4
102312	13:59	50	1.2.zape	79	2418	4
102312	13:59	50	2.4.lump	80	2023	5
102312	13:59	50	2.4.body	81	1837	6
102312	13:59	50	1.3.jafe	82	2282	4
102312	13:59	50	1.1.fryn	83	2694	5
102312	13:59	50	1.4.noof	84	7416	3
102312	13:59	50	1.2.lale	85	3184	5
102312	13:59	50	2.2.lids	86	2408	6
102312	13:59	50	1.3.yave	87	2861	5
102312	13:59	50	2.5.fat	88	2666	2
102312	13:59	50	1.2.zake	89	3831	5
102312	13:59	50	1.6.soog	90	2412	4
102312	13:59	50	2.4.nude	91	2546	4
102312	13:59	50	1.1.vuy	92	3067	5
102312	13:59	50	1.4.moob	93	4503	3
102312	13:59	50	2.4.tidy	94	2402	8
102312	13:59	50	2.6.milk	95	3216	6
102312	13:59	50	1.6.kabe	96	2334	5
102312	13:59	50	1.6.zote	97	5663	5
102312	13:59	50	2.6.dark	98	2492	2
102312	13:59	50	2.5.arm	99	3159	6
102312	13:59	50	2.1.thy	100	1912	6
102312	13:59	50	1.3.vabe	101	1650	5
102312	13:59	50	2.6.dog	102	2383	8
102312	13:59	50	1.6.nilo	103	3326	6
102312	13:59	50	2.2.leap	104	1264	6
102312	13:59	50	2.3.hate	105	3099	2
102312	13:59	50	1.2.lalo	106	3374	5
102312	13:59	50	1.6.vook	107	10934	5
102312	13:59	50	2.1.bug	108	1938	3
102312	13:59	50	2.4.flag	109	2443	7
102312	13:59	50	2.5.boy	110	2232	7
102312	13:59	50	1.5.vaf	111	3525	3
102312	13:59	50	2.6.evil	112	2264	1
102312	13:59	50	1.5.syg	113	3011	4
102312	13:59	50	1.1.ryng	114	2314	6
102312	13:59	50	2.3.knot	115	2715	4
102312	13:59	50	2.3.time	116	2054	6
102312	13:59	50	2.6.kin	117	2818	6
102312	13:59	50	2.3.obey	118	4711	6
102312	13:59	50	2.5.art	119	1866	7
102312	13:59	50	1.1.vun	120	2158	5
102312	14:29	60	speed	1	4112	39
102312	14:29	60	error	2	1651	100
102312	14:29	60	whichhand	3	11630	right
102312	14:29	60	2.2.sex	1	10295	8
102312	14:29	60	1.6.vape	2	7460	5
102312	14:29	60	2.5.non	3	4394	5
102312	14:29	60	1.6.joi	4	3330	6
102312	14:29	60	1.4.toof	5	5907	5
102312	14:29	60	2.4.lump	6	4759	3
102312	14:29	60	1.6.zote	7	3088	5
102312	14:29	60	1.5.feg	8	4020	5
102312	14:29	60	2.3.hate	9	3074	1
102312	14:29	60	2.6.slit	10	3742	4
102312	14:29	60	1.1.nuv	11	1807	5
102312	14:29	60	2.3.star	12	3318	7
102312	14:29	60	2.6.pain	13	2272	1
102312	14:29	60	2.1.rut	14	2476	5
102312	14:29	60	1.3.jofe	15	1831	5
102312	14:29	60	1.3.yome	16	1717	5
102312	14:29	60	1.3.anay	17	1334	5
102312	14:29	60	1.4.foob	18	1519	5
102312	14:29	60	1.1.mur	19	1552	5
102312	14:29	60	2.5.boy	20	3264	7
102312	14:29	60	1.2.zake	21	1573	5
102312	14:29	60	1.6.kabe	22	1084	5
102312	14:29	60	2.6.cat	23	3351	4
102312	14:29	60	1.2.leel	24	1559	5
102312	14:29	60	2.1.but	25	1856	5
102312	14:29	60	2.2.sick	26	2028	1
102312	14:29	60	2.4.moon	27	2906	6
102312	14:29	60	2.1.rug	28	6357	4
102312	14:29	60	2.6.milk	29	2550	7
102312	14:29	60	1.1.ghun	30	1063	5
102312	14:29	60	1.1.vun	31	1378	5
102312	14:29	60	2.2.cell	32	2761	8
102312	14:29	60	1.4.moob	33	1178	5
102312	14:29	60	1.1.fryn	34	1026	5
102312	14:29	60	1.3.yave	35	903	5
102312	14:29	60	1.3.tage	36	897	5
102312	14:29	60	2.4.flag	37	3427	6
102312	14:29	60	2.2.lop	38	921	5
102312	14:29	60	1.1.ryng	39	754	5
102312	14:29	60	2.2.lids	40	2242	5
102312	14:29	60	1.2.xad	41	824	5
102312	14:29	60	1.3.jafe	42	853	5
102312	14:29	60	1.1.vuy	43	809	5
102312	14:29	60	2.6.dark	44	2022	4
102312	14:29	60	1.1.gub	45	893	5
102312	14:29	60	2.2.leap	46	3047	6
102312	14:29	60	1.1.guf	47	939	5
102312	14:29	60	2.5.bomb	48	2940	2
102312	14:29	60	1.3.mobe	49	990	5
102312	14:29	60	2.5.unit	50	2348	5
102312	14:29	60	2.1.buy	51	2405	7
102312	14:29	60	2.4.foam	52	1467	5
102312	14:29	60	2.1.bug	53	2167	6
102312	14:29	60	1.3.yane	54	1094	5
102312	14:29	60	2.5.bar	55	1489	5
102312	14:29	60	2.3.time	56	2308	4
102312	14:29	60	1.4.teef	57	975	5
102312	14:29	60	1.4.noof	58	950	5
102312	14:29	60	1.5.vaf	59	662	5
102312	14:29	60	2.3.obey	60	2442	4
102312	14:29	60	1.5.yeb	61	943	5
102312	14:29	60	2.1.fur	62	1399	5
102312	14:29	60	1.6.celm	63	822	5
102312	14:29	60	2.3.blue	64	3187	5
102312	14:29	60	1.3.tove	65	962	5
102312	14:29	60	1.2.zoke	66	2194	5
102312	14:29	60	2.4.free	67	2993	7
102312	14:29	60	1.6.nilo	68	3288	5
102312	14:29	60	1.4.boog	69	1715	5
102312	14:29	60	1.4.yeeb	70	693	5
102312	14:29	60	1.6.dofe	71	664	5
102312	14:29	60	1.5.fuw	72	651	5
102312	14:29	60	2.3.name	73	3566	9
102312	14:29	60	2.3.hard	74	2143	1
102312	14:29	60	2.4.nude	75	2088	8
102312	14:29	60	2.1.thy	76	1907	5
102312	14:29	60	1.2.dax	77	1117	5
102312	14:29	60	1.5.tutk	78	1103	5
102312	14:29	60	2.5.grin	79	3193	8
102312	14:29	60	2.1.fun	80	1360	9
102312	14:29	60	1.4.voom	81	2616	6
102312	14:29	60	1.4.moof	82	1430	5
102312	14:29	60	1.2.zape	83	1051	5
102312	14:29	60	2.2.cake	84	1895	9
102312	14:29	60	2.6.scar	85	2074	2
102312	14:29	60	2.6.evil	86	1342	1
102312	14:29	60	1.5.jufe	87	1111	5
102312	14:29	60	2.1.guy	88	5393	7
102312	14:29	60	1.2.lalo	89	1809	5
102312	14:29	60	2.5.arm	90	5847	8
102312	14:29	60	1.6.vook	91	1261	5
102312	14:29	60	2.5.bus	92	2065	6
102312	14:29	60	2.2.slid	93	2012	6
102312	14:29	60	2.6.kin	94	3226	7
102312	14:29	60	1.6.soog	95	1168	5
102312	14:29	60	1.5.syg	96	744	5
102312	14:29	60	1.5.bih	97	856	5
102312	14:29	60	2.1.thus	98	1020	5
102312	14:29	60	1.5.zyr	99	1001	5
102312	14:29	60	1.3.vabe	100	736	5
102312	14:29	60	1.2.likk	101	2224	5
102312	14:29	60	2.6.dog	102	2958	7
102312	14:29	60	2.4.tidy	103	5054	9
102312	14:29	60	1.1.bryg	104	1316	5
102312	14:29	60	2.3.knot	105	7205	3
102312	14:29	60	1.2.lale	106	1189	5
102312	14:29	60	2.5.art	107	1916	8
102312	14:29	60	2.3.yore	108	821	5
102312	14:29	60	1.2.zeed	109	3419	5
102312	14:29	60	2.4.part	110	3073	5
102312	14:29	60	1.4.yoof	111	741	5
102312	14:29	60	2.3.more	112	2374	6
102312	14:29	60	2.4.body	113	2605	7
102312	14:29	60	2.2.slow	114	3100	4
102312	14:29	60	2.5.fat	115	4847	5
102312	14:29	60	2.6.mask	116	5764	3
102312	14:29	60	2.2.dead	117	1685	1
102312	14:29	60	2.4.dump	118	2471	1
102312	14:29	60	1.6.lim	119	1235	5
102312	14:29	60	1.5.jaj	120	761	5
102412	11:48	5432	speed	1	2977	43
102412	11:48	5432	error	2	2609	97
102412	11:48	5432	whichhand	3	7575	right
102412	11:48	5432	1.5.bih	1	12960	2
102412	11:48	5432	2.4.free	2	1979	8
102412	11:48	5432	2.5.non	3	1594	4
102412	11:48	5432	2.6.evil	4	2560	1
102412	11:48	5432	2.5.art	5	2929	6
102412	11:48	5432	2.6.dog	6	1130	8
102412	11:48	5432	1.1.vuy	7	3219	5
102412	11:48	5432	1.1.bryg	8	1890	6
102412	11:48	5432	2.2.lop	9	1836	4
102412	11:48	5432	2.5.grin	10	1505	7
102412	11:48	5432	2.6.kin	11	2203	8
102412	11:48	5432	2.5.bar	12	3106	4
102412	11:48	5432	2.2.cake	13	1276	6
102412	11:48	5432	1.1.vun	14	1896	5
102412	11:48	5432	2.3.yore	15	2338	4
102412	11:48	5432	2.4.tidy	16	1435	5
102412	11:48	5432	2.4.foam	17	1800	6
102412	11:48	5432	1.5.yeb	18	1278	4
102412	11:48	5432	1.2.likk	19	2498	4
102412	11:48	5432	2.4.flag	20	956	6
102412	11:48	5432	1.3.tage	21	1964	5
102412	11:48	5432	1.2.lale	22	1748	7
102412	11:48	5432	2.4.nude	23	1292	3
102412	11:48	5432	1.6.joi	24	2199	7
102412	11:48	5432	2.2.cell	25	1438	5
102412	11:48	5432	1.4.voom	26	890	8
102412	11:48	5432	2.3.obey	27	1277	4
102412	11:48	5432	2.2.leap	28	984	6
102412	11:48	5432	2.1.buy	29	1071	4
102412	11:48	5432	2.4.part	30	843	5
102412	11:48	5432	1.3.jafe	31	991	6
102412	11:48	5432	2.5.fat	32	846	3
102412	11:48	5432	1.2.xad	33	1194	7
102412	11:48	5432	1.4.yeeb	34	1097	2
102412	11:48	5432	1.5.syg	35	1396	4
102412	11:48	5432	1.5.jaj	36	1450	3
102412	11:48	5432	1.2.zape	37	1966	5
102412	11:48	5432	1.4.foob	38	1110	6
102412	11:48	5432	1.2.lalo	39	1008	4
102412	11:48	5432	2.1.fun	40	1982	8
102412	11:48	5432	1.6.nilo	41	1189	5
102412	11:48	5432	2.5.bomb	42	892	3
102412	11:48	5432	2.3.more	43	1318	7
102412	11:48	5432	2.1.rut	44	960	6
102412	11:48	5432	1.3.yome	45	1064	4
102412	11:48	5432	1.2.leel	46	1483	3
102412	11:48	5432	1.1.gub	47	1566	2
102412	11:48	5432	1.3.yane	48	997	4
102412	11:48	5432	1.6.lim	49	1747	3
102412	11:48	5432	2.3.hate	50	1955	1
102412	11:48	5432	1.6.zote	51	1028	5
102412	11:48	5432	2.2.sick	52	1345	4
102412	11:48	5432	2.3.hard	53	1002	3
102412	11:48	5432	2.3.knot	54	2144	3
102412	11:48	5432	1.4.moob	55	1081	4
102412	11:48	5432	1.3.mobe	56	1732	4
102412	11:48	5432	2.5.bus	57	1389	5
102412	11:48	5432	2.6.cat	58	2716	3
102412	11:48	5432	1.5.fuw	59	1430	3
102412	11:48	5432	2.1.thy	60	1170	4
102412	11:48	5432	1.4.teef	61	986	4
102412	11:48	5432	1.3.jofe	62	1217	3
102412	11:48	5432	2.2.slid	63	1246	5
102412	11:48	5432	2.5.unit	64	2394	4
102412	11:48	5432	2.4.body	65	1017	6
102412	11:48	5432	1.1.fryn	66	1255	7
102412	11:48	5432	2.2.sex	67	3738	7
102412	11:48	5432	1.2.zake	68	1236	7
102412	11:48	5432	2.4.lump	69	1617	8
102412	11:48	5432	1.1.ghun	70	1014	8
102412	11:48	5432	2.1.bug	71	1604	4
102412	11:48	5432	2.2.slow	72	1434	4
102412	11:48	5432	1.5.feg	73	1103	3
102412	11:48	5432	1.6.vook	74	1329	5
102412	11:48	5432	2.3.blue	75	1850	6
102412	11:48	5432	1.6.celm	76	1455	3
102412	11:48	5432	2.6.milk	77	1131	7
102412	11:48	5432	1.2.dax	78	1235	4
102412	11:48	5432	1.3.anay	79	2400	3
102412	11:48	5432	1.2.zeed	80	959	5
102412	11:48	5432	2.6.dark	81	1647	3
102412	11:48	5432	1.6.kabe	82	1187	4
102412	11:48	5432	1.1.guf	83	1090	4
102412	11:48	5432	1.5.tutk	84	1108	3
102412	11:48	5432	1.4.toof	85	1127	5
102412	11:48	5432	1.1.mur	86	1000	4
102412	11:48	5432	1.5.zyr	87	1534	3
102412	11:48	5432	1.1.nuv	88	1303	3
102412	11:48	5432	1.1.ryng	89	1665	7
102412	11:48	5432	1.5.jufe	90	1540	4
102412	11:48	5432	2.6.slit	91	1301	4
102412	11:48	5432	1.4.noof	92	1047	3
102412	11:48	5432	2.3.time	93	1371	5
102412	11:48	5432	1.4.boog	94	1259	5
102412	11:48	5432	1.4.moof	95	871	5
102412	11:48	5432	1.3.vabe	96	1122	3
102412	11:48	5432	2.2.lids	97	2043	4
102412	11:48	5432	1.5.vaf	98	1473	3
102412	11:48	5432	2.1.but	99	1044	5
102412	11:48	5432	1.3.tove	100	1105	4
102412	11:48	5432	2.5.boy	101	3203	5
102412	11:48	5432	1.6.vape	102	1321	3
102412	11:48	5432	1.6.soog	103	1083	4
102412	11:48	5432	1.4.yoof	104	1598	4
102412	11:48	5432	2.5.arm	105	1876	6
102412	11:48	5432	2.3.star	106	1032	7
102412	11:48	5432	1.2.zoke	107	1421	6
102412	11:48	5432	1.3.yave	108	1066	4
102412	11:48	5432	2.6.scar	109	1437	3
102412	11:48	5432	2.3.name	110	1466	7
102412	11:48	5432	1.6.dofe	111	1061	5
102412	11:48	5432	2.4.dump	112	1225	3
102412	11:48	5432	2.1.rug	113	1015	4
102412	11:48	5432	2.2.dead	114	1493	2
102412	11:48	5432	2.6.pain	115	1335	2
102412	11:48	5432	2.4.moon	116	1656	7
102412	11:48	5432	2.6.mask	117	1268	5
102412	11:48	5432	2.1.fur	118	1072	8
102412	11:48	5432	2.1.guy	119	1395	5
102412	11:48	5432	2.1.thus	120	1642	6
102912	12:12	54	speed	1	4886	36
102912	12:12	54	error	2	3658	91
102912	12:12	54	whichhand	3	14210	Right
102912	12:12	54	1.1.ghun	1	12505	3
102912	12:12	54	2.5.unit	2	2448	5
102912	12:12	54	2.4.tidy	3	3388	6
102912	12:12	54	2.4.free	4	3475	9
102912	12:12	54	2.5.grin	5	2368	9
102912	12:12	54	2.6.evil	6	4495	1
102912	12:12	54	1.6.vape	7	2579	2
102912	12:12	54	2.4.flag	8	2274	6
102912	12:12	54	1.5.syg	9	4101	3
102912	12:12	54	1.5.tutk	10	5048	3
102912	12:12	54	1.1.gub	11	2134	5
102912	12:12	54	2.5.bomb	12	2575	2
102912	12:12	54	2.3.name	13	2495	5
102912	12:12	54	1.5.jaj	14	4354	5
102912	12:12	54	2.3.blue	15	3091	6
102912	12:12	54	2.6.scar	16	3559	3
102912	12:12	54	2.1.fun	17	3207	7
102912	12:12	54	1.1.guf	18	2502	5
102912	12:12	54	1.2.zape	19	2489	4
102912	12:12	54	2.4.dump	20	3164	2
102912	12:12	54	2.1.thy	21	2524	5
102912	12:12	54	1.6.joi	22	2006	5
102912	12:12	54	1.4.foob	23	4108	5
102912	12:12	54	2.5.arm	24	5007	6
102912	12:12	54	1.2.leel	25	2470	5
102912	12:12	54	1.3.yave	26	7202	5
102912	12:12	54	1.4.noof	27	3698	4
102912	12:12	54	1.3.mobe	28	2269	5
102912	12:12	54	2.1.but	29	1409	5
102912	12:12	54	2.5.bar	30	2879	4
102912	12:12	54	1.3.tage	31	3778	5
102912	12:12	54	2.1.fur	32	2402	7
102912	12:12	54	2.5.fat	33	2433	4
102912	12:12	54	1.3.jafe	34	1421	5
102912	12:12	54	1.5.yeb	35	1147	5
102912	12:12	54	1.2.lale	36	2323	5
102912	12:12	54	1.4.boog	37	3573	3
102912	12:12	54	1.1.bryg	38	2005	5
102912	12:12	54	2.6.milk	39	2795	9
102912	12:12	54	1.2.zake	40	4218	4
102912	12:12	54	1.2.zeed	41	2729	6
102912	12:12	54	2.2.lop	42	2362	5
102912	12:12	54	1.4.yoof	43	4490	6
102912	12:12	54	2.1.rug	44	2150	7
102912	12:12	54	2.5.boy	45	2942	7
102912	12:12	54	2.5.art	46	1975	9
102912	12:12	54	2.6.pain	47	2271	1
102912	12:12	54	2.3.star	48	2003	9
102912	12:12	54	2.4.part	49	3017	5
102912	12:12	54	2.1.rut	50	2063	3
102912	12:12	54	1.5.vaf	51	3499	4
102912	12:12	54	2.4.foam	52	2214	4
102912	12:12	54	2.3.hard	53	2492	3
102912	12:12	54	2.2.slid	54	2327	3
102912	12:12	54	1.3.yome	55	2321	5
102912	12:12	54	1.4.teef	56	2539	6
102912	12:12	54	1.1.nuv	57	2491	5
102912	12:12	54	1.2.lalo	58	4839	5
102912	12:12	54	2.3.more	59	2053	7
102912	12:12	54	2.4.nude	60	1609	7
102912	12:12	54	1.4.voom	61	2599	7
102912	12:12	54	1.6.celm	62	2926	6
102912	12:12	54	1.3.jofe	63	1520	5
102912	12:12	54	2.3.knot	64	5313	4
102912	12:12	54	1.5.zyr	65	1388	5
102912	12:12	54	1.5.fuw	66	8555	5
102912	12:12	54	2.1.guy	67	2134	6
102912	12:12	54	1.2.zoke	68	3390	5
102912	12:12	54	1.6.lim	69	1614	5
102912	12:12	54	1.6.dofe	70	2379	4
102912	12:12	54	1.2.xad	71	2626	5
102912	12:12	54	2.5.non	72	2705	4
102912	12:12	54	2.4.moon	73	2043	9
102912	12:12	54	1.2.likk	74	1536	5
102912	12:12	54	1.1.vun	75	1329	5
102912	12:12	54	1.4.moob	76	2850	5
102912	12:12	54	2.3.obey	77	2430	3
102912	12:12	54	2.4.lump	78	2307	3
102912	12:12	54	2.2.dead	79	2358	1
102912	12:12	54	1.3.yane	80	4062	5
102912	12:12	54	2.5.bus	81	1963	6
102912	12:12	54	1.1.mur	82	2267	4
102912	12:12	54	2.4.body	83	2285	7
102912	12:12	54	1.4.toof	84	2129	6
102912	12:12	54	1.1.ryng	85	1490	5
102912	12:12	54	2.3.yore	86	3085	6
102912	12:12	54	1.5.feg	87	1641	5
102912	12:12	54	2.2.cell	88	4397	6
102912	12:12	54	1.2.dax	89	3141	5
102912	12:12	54	2.2.slow	90	2374	4
102912	12:12	54	1.6.kabe	91	2733	5
102912	12:12	54	2.2.sick	92	2711	1
102912	12:12	54	1.4.moof	93	2034	5
102912	12:12	54	2.6.slit	94	2494	2
102912	12:12	54	1.6.zote	95	4762	5
102912	12:12	54	2.1.buy	96	2786	7
102912	12:12	54	2.3.time	97	1778	7
102912	12:12	54	1.3.tove	98	1617	5
102912	12:12	54	2.6.kin	99	2271	7
102912	12:12	54	1.5.jufe	100	2619	5
102912	12:12	54	2.6.dog	101	2399	9
102912	12:12	54	2.6.dark	102	3031	3
102912	12:12	54	1.6.nilo	103	1804	5
102912	12:12	54	1.3.vabe	104	1882	5
102912	12:12	54	2.2.leap	105	4213	7
102912	12:12	54	2.6.cat	106	1780	9
102912	12:12	54	2.2.lids	107	3818	7
102912	12:12	54	1.6.soog	108	1521	5
102912	12:12	54	2.3.hate	109	2139	1
102912	12:12	54	1.6.vook	110	2331	5
102912	12:12	54	2.2.sex	111	2709	9
102912	12:12	54	2.1.bug	112	3527	3
102912	12:12	54	1.5.bih	113	2129	5
102912	12:12	54	2.2.cake	114	1866	9
102912	12:12	54	1.1.fryn	115	1438	5
102912	12:12	54	1.4.yeeb	116	1155	5
102912	12:12	54	2.1.thus	117	1699	5
102912	12:12	54	1.1.vuy	118	981	5
102912	12:12	54	2.6.mask	119	2180	6
102912	12:12	54	1.3.anay	120	995	5
103112	13:59	45698742244444	speed	1	5617	52
103112	13:59	45698742244444	error	2	3281	96
103112	13:59	45698742244444	whichhand	3	4692	right
103112	13:59	45698742244444	2.4.moon	1	9696	6
103112	13:59	45698742244444	1.2.leel	2	4677	4
103112	13:59	45698742244444	2.5.arm	3	2233	5
103112	13:59	45698742244444	1.3.yave	4	3814	6
103112	13:59	45698742244444	1.4.voom	5	2429	7
103112	13:59	45698742244444	2.1.thus	6	1738	7
103112	13:59	45698742244444	1.4.boog	7	2379	3
103112	13:59	45698742244444	2.5.fat	8	2826	3
103112	13:59	45698742244444	1.4.toof	9	4048	5
103112	13:59	45698742244444	2.6.slit	10	2461	4
103112	13:59	45698742244444	1.5.jaj	11	2121	5
103112	13:59	45698742244444	1.2.lale	12	1395	5
103112	13:59	45698742244444	2.2.sex	13	3906	6
103112	13:59	45698742244444	2.3.obey	14	3189	4
103112	13:59	45698742244444	2.5.bar	15	2261	5
103112	13:59	45698742244444	1.5.zyr	16	3113	4
103112	13:59	45698742244444	1.2.xad	17	1315	4
103112	13:59	45698742244444	2.5.boy	18	2389	7
103112	13:59	45698742244444	1.1.ryng	19	1923	4
103112	13:59	45698742244444	1.1.guf	20	2877	3
103112	13:59	45698742244444	2.5.grin	21	2873	7
103112	14:04	789789787897978978	speed	1	5471	57
103112	14:04	789789787897978978	error	2	3035	100
103112	14:04	789789787897978978	whichhand	3	3200	right
103112	14:04	789789787897978978	1.3.jofe	1	5596	6
103112	14:04	789789787897978978	1.6.celm	2	2243	4
103112	14:04	789789787897978978	1.4.teef	3	1688	3
103112	14:04	789789787897978978	1.2.zoke	4	2267	4
103112	14:04	789789787897978978	2.3.knot	5	1503	4
103112	14:04	789789787897978978	1.6.dofe	6	1065	4
103112	14:04	789789787897978978	1.2.dax	7	1029	4
103112	14:04	789789787897978978	1.5.jaj	8	1778	3
103112	14:04	789789787897978978	1.4.yoof	9	1513	6
103112	14:04	789789787897978978	1.5.vaf	10	1938	3
103112	14:04	789789787897978978	2.3.blue	11	1963	8
103112	14:04	789789787897978978	1.4.noof	12	1411	7
103112	14:04	789789787897978978	1.1.mur	13	2801	4
103112	14:04	789789787897978978	2.5.fat	14	1648	2
103112	14:04	789789787897978978	1.1.nuv	15	1325	3
103112	14:04	789789787897978978	1.4.moof	16	1493	7
103112	14:04	789789787897978978	2.3.hate	17	2384	2
103112	14:04	789789787897978978	2.1.guy	18	1711	7
103112	14:04	789789787897978978	2.5.non	19	1770	4
103112	14:04	789789787897978978	2.2.sex	20	1442	8
103112	14:04	789789787897978978	2.6.slit	21	2278	3
103112	14:04	789789787897978978	1.5.syg	22	1162	3
103112	14:04	789789787897978978	1.2.zake	23	2489	5
103112	14:04	789789787897978978	1.1.fryn	24	1844	4
103112	14:04	789789787897978978	1.2.xad	25	1594	5
103112	14:04	789789787897978978	2.4.nude	26	2376	6
103112	14:04	789789787897978978	2.3.name	27	2224	6
103112	14:04	789789787897978978	2.1.but	28	2054	5
103112	14:04	789789787897978978	2.4.body	29	1530	6
103112	14:04	789789787897978978	2.2.leap	30	2115	7
103112	14:04	789789787897978978	2.6.dark	31	2085	4
103112	14:04	789789787897978978	1.6.soog	32	2088	5
103112	14:04	789789787897978978	2.1.thus	33	1451	7
103112	14:04	789789787897978978	2.1.rut	34	1999	3
103112	14:04	789789787897978978	1.5.yeb	35	1878	5
103112	14:04	789789787897978978	1.6.joi	36	1609	5
103112	14:04	789789787897978978	2.2.slid	37	1991	6
103112	14:04	789789787897978978	2.6.scar	38	1342	4
103112	14:04	789789787897978978	2.3.yore	39	1903	5
103112	14:04	789789787897978978	2.5.grin	40	1921	8
103112	14:04	789789787897978978	1.4.foob	41	1459	6
103112	14:04	789789787897978978	2.5.bus	42	1775	3
103112	14:04	789789787897978978	2.3.time	43	2159	5
103112	14:04	789789787897978978	1.3.tove	44	1015	5
103112	14:04	789789787897978978	1.5.fuw	45	1669	4
103112	14:04	789789787897978978	1.2.zape	46	1344	6
103112	14:04	789789787897978978	1.1.gub	47	1113	5
103112	14:04	789789787897978978	1.5.tutk	48	1307	5
103112	14:04	789789787897978978	1.3.jafe	49	2708	6
103112	14:04	789789787897978978	1.1.vun	50	1263	6
103112	14:04	789789787897978978	1.5.bih	51	1394	4
103112	14:04	789789787897978978	2.2.dead	52	1929	1
103112	14:04	789789787897978978	1.3.mobe	53	1354	3
103112	14:04	789789787897978978	2.1.bug	54	1314	3
103112	14:04	789789787897978978	2.5.bar	55	1516	6
103112	14:04	789789787897978978	1.6.zote	56	1309	6
103112	14:04	789789787897978978	2.1.thy	57	2712	5
103112	14:04	789789787897978978	1.2.leel	58	1481	3
103112	14:04	789789787897978978	2.5.bomb	59	1684	3
103112	14:04	789789787897978978	2.3.more	60	1711	7
103112	14:04	789789787897978978	1.6.vape	61	2049	6
103112	14:04	789789787897978978	1.5.feg	62	1453	4
103112	14:04	789789787897978978	1.3.yane	63	2338	5
103112	14:04	789789787897978978	2.2.lids	64	1147	5
103112	14:04	789789787897978978	2.4.dump	65	1907	2
103112	14:04	789789787897978978	2.1.rug	66	1765	5
103112	14:04	789789787897978978	2.2.cake	67	1821	9
103112	14:04	789789787897978978	1.1.vuy	68	2586	4
103112	14:04	789789787897978978	1.1.ghun	69	1962	3
103112	14:04	789789787897978978	2.6.cat	70	4001	4
103112	14:04	789789787897978978	1.6.vook	71	1216	4
103112	14:04	789789787897978978	1.5.jufe	72	4038	4
103112	14:04	789789787897978978	1.1.guf	73	2316	4
103112	14:04	789789787897978978	1.3.yome	74	1125	4
103112	14:04	789789787897978978	2.4.flag	75	1559	5
103112	14:04	789789787897978978	1.2.zeed	76	2927	5
103112	14:04	789789787897978978	1.3.vabe	77	1593	6
103112	14:04	789789787897978978	1.1.ryng	78	1663	5
103112	14:04	789789787897978978	2.6.evil	79	1627	2
103112	14:04	789789787897978978	2.4.moon	80	1785	7
103112	14:04	789789787897978978	2.4.lump	81	1760	3
103112	14:04	789789787897978978	2.6.kin	82	1528	6
103112	14:04	789789787897978978	2.5.art	83	2033	7
103112	14:04	789789787897978978	2.1.buy	84	1174	7
103112	14:04	789789787897978978	2.2.lop	85	1726	3
103112	14:04	789789787897978978	2.4.part	86	3415	5
103112	14:04	789789787897978978	1.4.voom	87	1750	7
103112	14:04	789789787897978978	2.4.free	88	2678	8
103112	14:04	789789787897978978	1.1.bryg	89	1602	3
103112	14:04	789789787897978978	1.2.lale	90	1265	3
103112	14:04	789789787897978978	2.2.slow	91	1779	4
103112	14:04	789789787897978978	1.3.tage	92	1482	5
103112	14:04	789789787897978978	1.6.kabe	93	1797	6
103112	14:04	789789787897978978	2.3.star	94	1347	8
103112	14:04	789789787897978978	1.2.likk	95	1587	3
103112	14:04	789789787897978978	2.2.sick	96	1546	2
103112	14:04	789789787897978978	1.4.toof	97	2115	5
103112	14:04	789789787897978978	1.5.zyr	98	2012	5
103112	14:04	789789787897978978	2.6.pain	99	1642	2
103112	14:04	789789787897978978	1.3.anay	100	2199	6
103112	14:04	789789787897978978	2.1.fun	101	1517	9
103112	14:04	789789787897978978	1.4.yeeb	102	1175	4
103112	14:04	789789787897978978	2.4.foam	103	1710	6
103112	14:04	789789787897978978	2.5.arm	104	1177	5
103112	14:04	789789787897978978	1.4.boog	105	2072	2
103112	14:04	789789787897978978	2.6.milk	106	1867	6
103112	14:04	789789787897978978	1.4.moob	107	1711	4
103112	14:04	789789787897978978	2.5.unit	108	1889	5
103112	14:04	789789787897978978	2.3.hard	109	1988	6
103112	14:04	789789787897978978	2.5.boy	110	3027	6
103112	14:04	789789787897978978	2.4.tidy	111	2233	6
103112	14:04	789789787897978978	1.3.yave	112	1230	4
103112	14:04	789789787897978978	1.6.lim	113	1603	5
103112	14:04	789789787897978978	2.2.cell	114	3785	6
103112	14:04	789789787897978978	1.2.lalo	115	1449	6
103112	14:04	789789787897978978	2.1.fur	116	1397	7
103112	14:04	789789787897978978	2.3.obey	117	2219	4
103112	14:04	789789787897978978	2.6.mask	118	1489	7
103112	14:04	789789787897978978	2.6.dog	119	1732	9
103112	14:04	789789787897978978	1.6.nilo	120	1317	3
110712	15:15	45645645645645645612313	speed	1	9938	54
110712	15:15	45645645645645645612313	error	2	3989	96
110712	15:15	45645645645645645612313	whichhand	3	3533	right
110712	15:15	45645645645645645612313	1.3.yane	1	8205	3
110712	15:15	45645645645645645612313	2.4.part	2	2189	5
110712	15:15	45645645645645645612313	2.5.grin	3	2292	9
110712	15:15	45645645645645645612313	2.1.but	4	1984	4
110712	15:15	45645645645645645612313	2.4.dump	5	1743	1
110712	15:15	45645645645645645612313	2.3.knot	6	4440	7
110712	15:15	45645645645645645612313	1.3.tove	7	2358	5
110712	15:15	45645645645645645612313	1.3.yome	8	2278	6
110712	15:15	45645645645645645612313	2.5.boy	9	1745	9
110712	15:15	45645645645645645612313	1.6.dofe	10	2506	3
110712	15:15	45645645645645645612313	1.2.lalo	11	2572	2
110712	15:15	45645645645645645612313	1.4.teef	12	2828	1
110712	15:15	45645645645645645612313	1.2.zoke	13	1642	3
110712	15:15	45645645645645645612313	2.4.body	14	1799	1
110712	15:15	45645645645645645612313	1.5.bih	15	1637	4
110712	15:15	45645645645645645612313	2.5.fat	16	1610	1
110712	15:15	45645645645645645612313	1.5.vaf	17	2848	2
110712	15:15	45645645645645645612313	2.4.nude	18	1789	1
110712	15:15	45645645645645645612313	1.1.ryng	19	1740	2
110712	15:15	45645645645645645612313	1.1.bryg	20	2269	2
110712	15:15	45645645645645645612313	1.3.jofe	21	2249	3
110712	15:15	45645645645645645612313	2.2.lop	22	1725	3
110712	15:15	45645645645645645612313	1.2.lale	23	1279	3
110712	15:15	45645645645645645612313	2.3.name	24	3154	6
110712	15:15	45645645645645645612313	2.2.leap	25	1626	7
110712	15:15	45645645645645645612313	1.5.feg	26	1472	5
110712	15:15	45645645645645645612313	1.1.vun	27	1691	3
110712	15:15	45645645645645645612313	1.6.kabe	28	2190	3
110712	15:15	45645645645645645612313	1.1.gub	29	1797	2
110712	15:15	45645645645645645612313	1.5.zyr	30	1900	1
110712	15:15	45645645645645645612313	2.4.lump	31	2158	1
110712	15:15	45645645645645645612313	1.2.dax	32	894	1
110712	15:15	45645645645645645612313	2.5.non	33	1817	2
110712	15:15	45645645645645645612313	1.1.vuy	34	1231	2
110712	15:15	45645645645645645612313	2.5.arm	35	4067	5
110712	15:15	45645645645645645612313	1.1.fryn	36	1224	4
110712	15:15	45645645645645645612313	2.5.bar	37	2797	4
110712	15:15	45645645645645645612313	1.6.zote	38	2076	4
110712	15:15	45645645645645645612313	2.5.bomb	39	1935	1
110712	15:15	45645645645645645612313	1.6.lim	40	1240	3
110712	15:15	45645645645645645612313	2.3.hate	41	2021	1
110712	15:15	45645645645645645612313	2.2.cell	42	2187	9
110712	15:15	45645645645645645612313	2.1.bug	43	1898	1
110712	15:15	45645645645645645612313	1.1.guf	44	1724	1
110712	15:15	45645645645645645612313	2.1.buy	45	4277	7
110712	15:15	45645645645645645612313	2.4.moon	46	1594	7
110712	15:15	45645645645645645612313	2.6.cat	47	2345	4
110712	15:15	45645645645645645612313	1.5.jaj	48	1489	3
110712	15:15	45645645645645645612313	1.1.mur	49	2764	3
110712	15:15	45645645645645645612313	2.3.blue	50	3732	5
110712	15:15	45645645645645645612313	2.5.unit	51	1374	3
110712	15:15	45645645645645645612313	2.5.bus	52	2349	5
110712	15:15	45645645645645645612313	2.6.dark	53	1926	3
110712	15:15	45645645645645645612313	1.4.toof	54	1527	3
110712	15:15	45645645645645645612313	2.1.thus	55	1369	3
110712	15:15	45645645645645645612313	1.4.foob	56	1145	2
110712	15:15	45645645645645645612313	1.4.yeeb	57	2441	5
110712	15:15	45645645645645645612313	2.6.slit	58	1302	4
110712	15:15	45645645645645645612313	2.2.cake	59	1816	9
110712	15:15	45645645645645645612313	2.2.slow	60	1830	5
110712	15:15	45645645645645645612313	2.6.milk	61	1795	3
110712	15:15	45645645645645645612313	1.4.noof	62	1618	2
110712	15:15	45645645645645645612313	2.3.obey	63	1664	2
110712	15:15	45645645645645645612313	2.3.more	64	2115	7
110712	15:15	45645645645645645612313	1.2.zape	65	925	4
110712	15:15	45645645645645645612313	1.3.tage	66	1214	3
110712	15:15	45645645645645645612313	2.6.kin	67	1419	2
110712	15:15	45645645645645645612313	1.2.xad	68	1201	4
110712	15:15	45645645645645645612313	2.3.yore	69	1143	3
110712	15:15	45645645645645645612313	1.4.moof	70	1024	4
110712	15:15	45645645645645645612313	2.1.rut	71	2141	2
110712	15:15	45645645645645645612313	1.3.vabe	72	1582	1
110712	15:15	45645645645645645612313	2.1.rug	73	2029	5
110712	15:15	45645645645645645612313	2.1.fun	74	2146	9
110712	15:15	45645645645645645612313	1.6.vook	75	1754	3
110712	15:15	45645645645645645612313	1.3.yave	76	1291	2
110712	15:15	45645645645645645612313	2.6.dog	77	1853	9
110712	15:15	45645645645645645612313	1.1.ghun	78	1514	3
110712	15:15	45645645645645645612313	1.5.fuw	79	755	3
110712	15:15	45645645645645645612313	1.6.nilo	80	1067	3
110712	15:15	45645645645645645612313	1.3.anay	81	1119	3
110712	15:15	45645645645645645612313	2.4.free	82	1888	9
110712	15:15	45645645645645645612313	1.4.moob	83	1531	3
110712	15:15	45645645645645645612313	1.6.soog	84	708	3
110712	15:15	45645645645645645612313	2.1.thy	85	1342	3
110712	15:15	45645645645645645612313	2.3.time	86	3054	5
110712	15:15	45645645645645645612313	1.5.syg	87	3307	1
110712	15:15	45645645645645645612313	2.6.scar	88	2094	2
110712	15:15	45645645645645645612313	2.1.fur	89	2673	8
110712	15:15	45645645645645645612313	2.4.foam	90	3109	7
110712	15:15	45645645645645645612313	2.3.hard	91	3856	1
110712	15:15	45645645645645645612313	1.4.voom	92	1876	2
110712	15:15	45645645645645645612313	1.4.yoof	93	1672	2
110712	15:15	45645645645645645612313	2.2.sick	94	1515	1
110712	15:15	45645645645645645612313	2.6.pain	95	1157	1
110712	15:15	45645645645645645612313	1.5.tutk	96	973	1
110712	15:15	45645645645645645612313	1.2.zake	97	1068	2
110712	15:15	45645645645645645612313	1.5.jufe	98	736	2
110712	15:15	45645645645645645612313	2.5.art	99	2144	8
110712	15:15	45645645645645645612313	2.2.sex	100	2305	7
110712	15:15	45645645645645645612313	2.6.evil	101	1428	3
110712	15:15	45645645645645645612313	1.6.celm	102	1570	5
110712	15:15	45645645645645645612313	1.4.boog	103	3273	6
110712	15:15	45645645645645645612313	2.2.lids	104	1141	5
110712	15:15	45645645645645645612313	2.6.mask	105	2598	5
110712	15:15	45645645645645645612313	2.3.star	106	1388	9
110712	15:15	45645645645645645612313	1.6.vape	107	1075	4
110712	15:15	45645645645645645612313	2.4.tidy	108	2118	5
110712	15:15	45645645645645645612313	1.6.joi	109	672	5
110712	15:15	45645645645645645612313	1.2.leel	110	1188	3
110712	15:15	45645645645645645612313	2.4.flag	111	1434	7
110712	15:15	45645645645645645612313	1.3.mobe	112	1303	4
110712	15:15	45645645645645645612313	1.2.zeed	113	1937	3
110712	15:15	45645645645645645612313	2.1.guy	114	1538	9
110712	15:15	45645645645645645612313	2.2.dead	115	1451	1
110712	15:15	45645645645645645612313	2.2.slid	116	1855	5
110712	15:15	45645645645645645612313	1.3.jafe	117	819	5
110712	15:15	45645645645645645612313	1.2.likk	118	673	5
110712	15:15	45645645645645645612313	1.5.yeb	119	548	5
110712	15:15	45645645645645645612313	1.1.nuv	120	484	5
